File: exp_dat/old/exp_2013_11_06_doublecheck/02pct_180g.uxd
; (content of file C:\DIFFDAT1\GIFT\MDL\Seawoong Lee\20131104_MV8\equal_area_maxkhi080_n8_2th40_130_x-25y00_180g.raw)
_FILEVERSION = 3
_SAMPLE =
_+SAMPLE =
_SITE = Korea
_USER = Admin
_GONIOMETER_CODE = 20
; Goniometer : D8 theta/2theta, stage : Unknown
_SAMPLE_CHANGER_CODE = 0
_ATTACHMENTS_CODE = 0
_GONIOMETER_RADIUS = 300
_FIXED_DIVSLIT = 1
_FIXED_SAMPLESLIT = 0
_SOLLER_SLITS = 2
_FIXED_DETSLIT = 0.1
_MONOCHROMATOR = 0
; Incident beam monochromator : None
_SOLLER_SLITS_2 = 2
_THIN_FILM = N
_BETA_FILTER = Y
_FIXED_ANTISLIT = 0.6
_ANALYZER_CODE = 0
; Received beam analyzer : None
_DATEMEASURED = "06-Nov-2013 09:31:50"
_WL_UNIT = A
_WL1 = 1.78897
_WL2 = 1.79285
_WL3 = 1.62079
_WLRATIO = 0.5
_ANODE = Co
_V4_INF_CREATOR = XRDWizard
_V4_INF_CREATOR_VERSION = V2.9.0.22
_V4_INF_WIZARD_VERSION = V2.9.0.22
_V4_INF_WIZARD_ADDINS = V2.9.0.22
_V4_INF_WIZARD_DOCTYPE = XRD
_V4_INF_OSUSER = Postech
_V4_INF_USER = Admin
_V4_INF_SITE = Korea

; Data for range 1
_DRIVE = COUPLED
_STEPTIME = 0.2
_STEPSIZE = 0.1
_STEPMODE = C
_START = 40
_THETA = 20
_2THETA = 40
_KHI = 0
_PHI = 0
_X = -25
_Y = 0
_Z = 0
_DETECTOR = 1
; Detector type : Scintillation counter
_HV = 687
_GAIN = 80
_LLD = 0.69
_ULD = 1.866
_DETECTORSLIT = unkn
_AUX1 = 0
_AUX2 = 0
_AUX3 = 0
_TIMESTARTED = 28
_TEMP_RATE = -1
_TEMP_DELAY = -1
_KV = 35
_MA = 40
_RANGE_WL = 1.78897
_3DPLANE = 0
_V4_ADDITIONALDETECTOR = 0
_V4_D8_DIBNUM = 1
_V4_DETECTORNAME = "Detector 1"
_V4_TTLDETECTOR = None
_V4_DETECTORTYPE = 1
_V4_DETECTORFLAGS = 524545
_V4_DETECTORHV = 687
_V4_DETECTORGAIN = 80
_V4_DETECTORLLD1 = 0.69
_V4_DETECTORWW1 = 1.176
_V4_DETECTORLLD2 = 0
_V4_DETECTORWW2 = 0
_V4_DETECTORPS = 0
_V4_DETECTORDT = 0
_V4_DETECTORPILEUPTIME = 0
_V4_COUNTERS_MASK = 1
_V4_DRIVES_MASK = 0
_V4_ENCODERS_MASK = 0
_2THETACOUNTS = 1
; 2THETA  Cnt1_D1
  40.0000        556
  40.1000        535
  40.2000        521
  40.3000        502
  40.4000        486
  40.5000        537
  40.6000        486
  40.7000        534
  40.8000        537
  40.9000        487
  41.0000        527
  41.1000        525
  41.2000        539
  41.3000        481
  41.4000        517
  41.5000        524
  41.6000        502
  41.7000        522
  41.8000        486
  41.9000        537
  42.0000        526
  42.1000        509
  42.2000        535
  42.3000        503
  42.4000        542
  42.5000        540
  42.6000        548
  42.7000        534
  42.8000        507
  42.9000        509
  43.0000        546
  43.1000        498
  43.2000        491
  43.3000        499
  43.4000        519
  43.5000        537
  43.6000        526
  43.7000        524
  43.8000        527
  43.9000        545
  44.0000        571
  44.1000        479
  44.2000        518
  44.3000        560
  44.4000        518
  44.5000        519
  44.6000        555
  44.7000        552
  44.8000        552
  44.9000        526
  45.0000        518
  45.1000        508
  45.2000        549
  45.3000        560
  45.4000        554
  45.5000        576
  45.6000        477
  45.7000        525
  45.8000        549
  45.9000        485
  46.0000        520
  46.1000        508
  46.2000        520
  46.3000        543
  46.4000        507
  46.5000        514
  46.6000        533
  46.7000        496
  46.8000        514
  46.9000        545
  47.0000        573
  47.1000        471
  47.2000        523
  47.3000        513
  47.4000        521
  47.5000        541
  47.6000        545
  47.7000        523
  47.8000        515
  47.9000        472
  48.0000        541
  48.1000        533
  48.2000        523
  48.3000        558
  48.4000        530
  48.5000        508
  48.6000        516
  48.7000        535
  48.8000        529
  48.9000        564
  49.0000        528
  49.1000        472
  49.2000        537
  49.3000        503
  49.4000        509
  49.5000        532
  49.6000        544
  49.7000        502
  49.8000        511
  49.9000        522
  50.0000        516
  50.1000        528
  50.2000        486
  50.3000        571
  50.4000        527
  50.5000        559
  50.6000        584
  50.7000        568
  50.8000        568
  50.9000        578
  51.0000        626
  51.1000        597
  51.2000        622
  51.3000        551
  51.4000        567
  51.5000        585
  51.6000        665
  51.7000        757
  51.8000        843
  51.9000        941
  52.0000        970
  52.1000       1062
  52.2000       1073
  52.3000       1006
  52.4000       1030
  52.5000        894
  52.6000        872
  52.7000        763
  52.8000        646
  52.9000        616
  53.0000        562
  53.1000        517
  53.2000        555
  53.3000        513
  53.4000        530
  53.5000        522
  53.6000        559
  53.7000        526
  53.8000        510
  53.9000        542
  54.0000        553
  54.1000        493
  54.2000        522
  54.3000        537
  54.4000        540
  54.5000        510
  54.6000        527
  54.7000        513
  54.8000        472
  54.9000        517
  55.0000        545
  55.1000        487
  55.2000        513
  55.3000        511
  55.4000        502
  55.5000        531
  55.6000        522
  55.7000        506
  55.8000        554
  55.9000        509
  56.0000        522
  56.1000        461
  56.2000        546
  56.3000        524
  56.4000        521
  56.5000        547
  56.6000        512
  56.7000        497
  56.8000        526
  56.9000        500
  57.0000        506
  57.1000        507
  57.2000        530
  57.3000        495
  57.4000        503
  57.5000        481
  57.6000        503
  57.7000        540
  57.8000        542
  57.9000        523
  58.0000        542
  58.1000        531
  58.2000        510
  58.3000        510
  58.4000        527
  58.5000        502
  58.6000        547
  58.7000        516
  58.8000        524
  58.9000        562
  59.0000        547
  59.1000        539
  59.2000        563
  59.3000        533
  59.4000        541
  59.5000        523
  59.6000        556
  59.7000        545
  59.8000        514
  59.9000        517
  60.0000        551
  60.1000        538
  60.2000        547
  60.3000        568
  60.4000        534
  60.5000        533
  60.6000        528
  60.7000        530
  60.8000        502
  60.9000        506
  61.0000        527
  61.1000        514
  61.2000        498
  61.3000        538
  61.4000        532
  61.5000        537
  61.6000        510
  61.7000        577
  61.8000        511
  61.9000        505
  62.0000        524
  62.1000        514
  62.2000        543
  62.3000        490
  62.4000        523
  62.5000        544
  62.6000        504
  62.7000        512
  62.8000        519
  62.9000        511
  63.0000        491
  63.1000        519
  63.2000        540
  63.3000        514
  63.4000        524
  63.5000        520
  63.6000        496
  63.7000        542
  63.8000        498
  63.9000        497
  64.0000        483
  64.1000        472
  64.2000        495
  64.3000        531
  64.4000        486
  64.5000        502
  64.6000        522
  64.7000        494
  64.8000        512
  64.9000        513
  65.0000        514
  65.1000        511
  65.2000        532
  65.3000        491
  65.4000        507
  65.5000        482
  65.6000        506
  65.7000        505
  65.8000        500
  65.9000        505
  66.0000        503
  66.1000        522
  66.2000        503
  66.3000        544
  66.4000        494
  66.5000        548
  66.6000        559
  66.7000        509
  66.8000        526
  66.9000        555
  67.0000        481
  67.1000        495
  67.2000        489
  67.3000        517
  67.4000        509
  67.5000        535
  67.6000        563
  67.7000        486
  67.8000        512
  67.9000        481
  68.0000        546
  68.1000        527
  68.2000        544
  68.3000        512
  68.4000        518
  68.5000        519
  68.6000        483
  68.7000        525
  68.8000        485
  68.9000        533
  69.0000        494
  69.1000        512
  69.2000        489
  69.3000        530
  69.4000        490
  69.5000        493
  69.6000        523
  69.7000        533
  69.8000        484
  69.9000        533
  70.0000        489
  70.1000        461
  70.2000        477
  70.3000        520
  70.4000        522
  70.5000        500
  70.6000        493
  70.7000        509
  70.8000        537
  70.9000        522
  71.0000        524
  71.1000        566
  71.2000        497
  71.3000        492
  71.4000        520
  71.5000        515
  71.6000        527
  71.7000        538
  71.8000        516
  71.9000        471
  72.0000        524
  72.1000        509
  72.2000        492
  72.3000        518
  72.4000        497
  72.5000        563
  72.6000        525
  72.7000        477
  72.8000        490
  72.9000        492
  73.0000        490
  73.1000        473
  73.2000        521
  73.3000        501
  73.4000        518
  73.5000        527
  73.6000        531
  73.7000        529
  73.8000        485
  73.9000        510
  74.0000        544
  74.1000        507
  74.2000        525
  74.3000        504
  74.4000        529
  74.5000        564
  74.6000        480
  74.7000        474
  74.8000        515
  74.9000        509
  75.0000        522
  75.1000        564
  75.2000        533
  75.3000        517
  75.4000        519
  75.5000        547
  75.6000        531
  75.7000        572
  75.8000        536
  75.9000        556
  76.0000        622
  76.1000        678
  76.2000        691
  76.3000        794
  76.4000        899
  76.5000       1067
  76.6000       1077
  76.7000       1114
  76.8000       1184
  76.9000       1143
  77.0000       1179
  77.1000       1049
  77.2000       1061
  77.3000        886
  77.4000        814
  77.5000        699
  77.6000        616
  77.7000        558
  77.8000        588
  77.9000        585
  78.0000        555
  78.1000        559
  78.2000        518
  78.3000        518
  78.4000        502
  78.5000        478
  78.6000        566
  78.7000        513
  78.8000        507
  78.9000        486
  79.0000        546
  79.1000        542
  79.2000        505
  79.3000        517
  79.4000        548
  79.5000        525
  79.6000        485
  79.7000        518
  79.8000        498
  79.9000        500
  80.0000        535
  80.1000        505
  80.2000        526
  80.3000        465
  80.4000        499
  80.5000        451
  80.6000        527
  80.7000        508
  80.8000        536
  80.9000        496
  81.0000        494
  81.1000        521
  81.2000        499
  81.3000        497
  81.4000        523
  81.5000        511
  81.6000        485
  81.7000        457
  81.8000        528
  81.9000        474
  82.0000        512
  82.1000        511
  82.2000        500
  82.3000        462
  82.4000        526
  82.5000        519
  82.6000        500
  82.7000        528
  82.8000        499
  82.9000        526
  83.0000        500
  83.1000        532
  83.2000        518
  83.3000        493
  83.4000        535
  83.5000        485
  83.6000        491
  83.7000        512
  83.8000        480
  83.9000        500
  84.0000        513
  84.1000        497
  84.2000        557
  84.3000        529
  84.4000        534
  84.5000        493
  84.6000        484
  84.7000        507
  84.8000        559
  84.9000        503
  85.0000        450
  85.1000        496
  85.2000        495
  85.3000        515
  85.4000        493
  85.5000        531
  85.6000        515
  85.7000        503
  85.8000        520
  85.9000        550
  86.0000        527
  86.1000        535
  86.2000        511
  86.3000        521
  86.4000        514
  86.5000        506
  86.6000        568
  86.7000        472
  86.8000        505
  86.9000        474
  87.0000        535
  87.1000        495
  87.2000        519
  87.3000        486
  87.4000        504
  87.5000        531
  87.6000        512
  87.7000        526
  87.8000        526
  87.9000        514
  88.0000        508
  88.1000        546
  88.2000        493
  88.3000        517
  88.4000        561
  88.5000        556
  88.6000        559
  88.7000        607
  88.8000        620
  88.9000        595
  89.0000        635
  89.1000        628
  89.2000        701
  89.3000        664
  89.4000        692
  89.5000        664
  89.6000        653
  89.7000        609
  89.8000        639
  89.9000        619
  90.0000        551
  90.1000        589
  90.2000        570
  90.3000        525
  90.4000        557
  90.5000        555
  90.6000        541
  90.7000        552
  90.8000        526
  90.9000        528
  91.0000        509
  91.1000        547
  91.2000        464
  91.3000        526
  91.4000        556
  91.5000        551
  91.6000        532
  91.7000        508
  91.8000        546
  91.9000        550
  92.0000        516
  92.1000        516
  92.2000        502
  92.3000        512
  92.4000        542
  92.5000        527
  92.6000        497
  92.7000        514
  92.8000        517
  92.9000        510
  93.0000        511
  93.1000        545
  93.2000        489
  93.3000        507
  93.4000        462
  93.5000        528
  93.6000        510
  93.7000        506
  93.8000        536
  93.9000        509
  94.0000        523
  94.1000        507
  94.2000        498
  94.3000        494
  94.4000        522
  94.5000        533
  94.6000        487
  94.7000        501
  94.8000        538
  94.9000        509
  95.0000        493
  95.1000        528
  95.2000        494
  95.3000        561
  95.4000        527
  95.5000        533
  95.6000        508
  95.7000        513
  95.8000        499
  95.9000        543
  96.0000        526
  96.1000        492
  96.2000        545
  96.3000        500
  96.4000        487
  96.5000        533
  96.6000        498
  96.7000        511
  96.8000        511
  96.9000        475
  97.0000        520
  97.1000        510
  97.2000        508
  97.3000        533
  97.4000        528
  97.5000        511
  97.6000        525
  97.7000        591
  97.8000        517
  97.9000        521
  98.0000        549
  98.1000        563
  98.2000        566
  98.3000        689
  98.4000        588
  98.5000        657
  98.6000        773
  98.7000        874
  98.8000       1014
  98.9000       1084
  99.0000       1316
  99.1000       1401
  99.2000       1444
  99.3000       1495
  99.4000       1484
  99.5000       1461
  99.6000       1385
  99.7000       1256
  99.8000       1097
  99.9000        991
 100.0000        858
 100.1000        711
 100.2000        718
 100.3000        612
 100.4000        622
 100.5000        576
 100.6000        569
 100.7000        523
 100.8000        543
 100.9000        530
 101.0000        562
 101.1000        502
 101.2000        503
 101.3000        525
 101.4000        549
 101.5000        510
 101.6000        491
 101.7000        539
 101.8000        535
 101.9000        522
 102.0000        547
 102.1000        500
 102.2000        513
 102.3000        495
 102.4000        508
 102.5000        493
 102.6000        478
 102.7000        494
 102.8000        515
 102.9000        542
 103.0000        517
 103.1000        484
 103.2000        526
 103.3000        523
 103.4000        516
 103.5000        503
 103.6000        530
 103.7000        542
 103.8000        521
 103.9000        502
 104.0000        501
 104.1000        535
 104.2000        524
 104.3000        516
 104.4000        552
 104.5000        488
 104.6000        577
 104.7000        548
 104.8000        525
 104.9000        521
 105.0000        514
 105.1000        519
 105.2000        473
 105.3000        484
 105.4000        486
 105.5000        518
 105.6000        496
 105.7000        498
 105.8000        508
 105.9000        532
 106.0000        543
 106.1000        548
 106.2000        505
 106.3000        536
 106.4000        518
 106.5000        476
 106.6000        496
 106.7000        479
 106.8000        532
 106.9000        464
 107.0000        499
 107.1000        486
 107.2000        498
 107.3000        495
 107.4000        504
 107.5000        515
 107.6000        517
 107.7000        503
 107.8000        517
 107.9000        508
 108.0000        495
 108.1000        534
 108.2000        476
 108.3000        538
 108.4000        494
 108.5000        551
 108.6000        525
 108.7000        512
 108.8000        525
 108.9000        505
 109.0000        554
 109.1000        508
 109.2000        488
 109.3000        501
 109.4000        528
 109.5000        530
 109.6000        562
 109.7000        559
 109.8000        542
 109.9000        541
 110.0000        526
 110.1000        509
 110.2000        515
 110.3000        581
 110.4000        511
 110.5000        605
 110.6000        562
 110.7000        566
 110.8000        591
 110.9000        592
 111.0000        594
 111.1000        563
 111.2000        569
 111.3000        561
 111.4000        580
 111.5000        540
 111.6000        526
 111.7000        533
 111.8000        544
 111.9000        524
 112.0000        513
 112.1000        519
 112.2000        558
 112.3000        513
 112.4000        562
 112.5000        522
 112.6000        543
 112.7000        526
 112.8000        533
 112.9000        517
 113.0000        524
 113.1000        538
 113.2000        540
 113.3000        471
 113.4000        536
 113.5000        517
 113.6000        522
 113.7000        464
 113.8000        522
 113.9000        520
 114.0000        480
 114.1000        497
 114.2000        477
 114.3000        542
 114.4000        521
 114.5000        491
 114.6000        542
 114.7000        497
 114.8000        519
 114.9000        553
 115.0000        537
 115.1000        516
 115.2000        524
 115.3000        524
 115.4000        545
 115.5000        507
 115.6000        534
 115.7000        528
 115.8000        488
 115.9000        479
 116.0000        541
 116.1000        501
 116.2000        499
 116.3000        470
 116.4000        511
 116.5000        495
 116.6000        520
 116.7000        536
 116.8000        482
 116.9000        497
 117.0000        536
 117.1000        507
 117.2000        508
 117.3000        518
 117.4000        503
 117.5000        531
 117.6000        540
 117.7000        511
 117.8000        533
 117.9000        482
 118.0000        559
 118.1000        506
 118.2000        540
 118.3000        502
 118.4000        539
 118.5000        510
 118.6000        536
 118.7000        520
 118.8000        514
 118.9000        511
 119.0000        501
 119.1000        506
 119.2000        501
 119.3000        540
 119.4000        461
 119.5000        504
 119.6000        538
 119.7000        463
 119.8000        512
 119.9000        521
 120.0000        487
 120.1000        530
 120.2000        508
 120.3000        516
 120.4000        591
 120.5000        489
 120.6000        490
 120.7000        525
 120.8000        487
 120.9000        534
 121.0000        510
 121.1000        499
 121.2000        523
 121.3000        541
 121.4000        493
 121.5000        522
 121.6000        531
 121.7000        521
 121.8000        557
 121.9000        511
 122.0000        484
 122.1000        520
 122.2000        536
 122.3000        506
 122.4000        508
 122.5000        526
 122.6000        535
 122.7000        542
 122.8000        543
 122.9000        576
 123.0000        557
 123.1000        533
 123.2000        541
 123.3000        550
 123.4000        519
 123.5000        574
 123.6000        526
 123.7000        564
 123.8000        537
 123.9000        536
 124.0000        584
 124.1000        563
 124.2000        522
 124.3000        517
 124.4000        511
 124.5000        524
 124.6000        502
 124.7000        478
 124.8000        516
 124.9000        491
 125.0000        520
 125.1000        492
 125.2000        564
 125.3000        515
 125.4000        525
 125.5000        496
 125.6000        487
 125.7000        560
 125.8000        528
 125.9000        541
 126.0000        522
 126.1000        490
 126.2000        529
 126.3000        507
 126.4000        542
 126.5000        552
 126.6000        513
 126.7000        516
 126.8000        540
 126.9000        509
 127.0000        516
 127.1000        545
 127.2000        481
 127.3000        522
 127.4000        512
 127.5000        508
 127.6000        485
 127.7000        496
 127.8000        553
 127.9000        478
 128.0000        516
 128.1000        511
 128.2000        500
 128.3000        485
 128.4000        503
 128.5000        517
 128.6000        508
 128.7000        493
 128.8000        514
 128.9000        499
 129.0000        459
 129.1000        525
 129.2000        511
 129.3000        502
 129.4000        553
 129.5000        561
 129.6000        488
 129.7000        528
 129.8000        541
 129.9000        520
 130.0000        486

; Data for range 2
_DRIVE = COUPLED
_STEPTIME = 0.2
_STEPSIZE = 0.1
_STEPMODE = C
_START = 40
_THETA = 20
_2THETA = 40
_KHI = 10.5
_PHI = 60
_X = -25
_Y = 0
_Z = 0
_DETECTOR = 1
; Detector type : Scintillation counter
_HV = 687
_GAIN = 80
_LLD = 0.69
_ULD = 1.866
_DETECTORSLIT = unkn
_AUX1 = 0
_AUX2 = 0
_AUX3 = 0
_TIMESTARTED = 226
_TEMP_RATE = -1
_TEMP_DELAY = -1
_KV = 35
_MA = 40
_RANGE_WL = 1.78897
_3DPLANE = 0
_V4_ADDITIONALDETECTOR = 0
_V4_D8_DIBNUM = 1
_V4_DETECTORNAME = "Detector 1"
_V4_TTLDETECTOR = None
_V4_DETECTORTYPE = 1
_V4_DETECTORFLAGS = 524545
_V4_DETECTORHV = 687
_V4_DETECTORGAIN = 80
_V4_DETECTORLLD1 = 0.69
_V4_DETECTORWW1 = 1.176
_V4_DETECTORLLD2 = 0
_V4_DETECTORWW2 = 0
_V4_DETECTORPS = 0
_V4_DETECTORDT = 0
_V4_DETECTORPILEUPTIME = 0
_V4_COUNTERS_MASK = 1
_V4_DRIVES_MASK = 0
_V4_ENCODERS_MASK = 0
_2THETACOUNTS = 1
; 2THETA  Cnt1_D1
  40.0000        572
  40.1000        533
  40.2000        560
  40.3000        588
  40.4000        575
  40.5000        561
  40.6000        543
  40.7000        540
  40.8000        580
  40.9000        517
  41.0000        561
  41.1000        546
  41.2000        509
  41.3000        538
  41.4000        552
  41.5000        537
  41.6000        542
  41.7000        530
  41.8000        557
  41.9000        575
  42.0000        528
  42.1000        548
  42.2000        567
  42.3000        584
  42.4000        560
  42.5000        568
  42.6000        542
  42.7000        559
  42.8000        560
  42.9000        512
  43.0000        549
  43.1000        518
  43.2000        577
  43.3000        518
  43.4000        566
  43.5000        553
  43.6000        535
  43.7000        557
  43.8000        562
  43.9000        558
  44.0000        512
  44.1000        515
  44.2000        542
  44.3000        594
  44.4000        535
  44.5000        543
  44.6000        564
  44.7000        551
  44.8000        519
  44.9000        493
  45.0000        549
  45.1000        538
  45.2000        557
  45.3000        527
  45.4000        567
  45.5000        558
  45.6000        543
  45.7000        543
  45.8000        521
  45.9000        504
  46.0000        524
  46.1000        534
  46.2000        513
  46.3000        541
  46.4000        541
  46.5000        529
  46.6000        536
  46.7000        539
  46.8000        508
  46.9000        544
  47.0000        522
  47.1000        594
  47.2000        545
  47.3000        539
  47.4000        538
  47.5000        532
  47.6000        533
  47.7000        531
  47.8000        511
  47.9000        550
  48.0000        545
  48.1000        574
  48.2000        529
  48.3000        536
  48.4000        584
  48.5000        518
  48.6000        539
  48.7000        538
  48.8000        548
  48.9000        554
  49.0000        542
  49.1000        549
  49.2000        545
  49.3000        549
  49.4000        532
  49.5000        567
  49.6000        539
  49.7000        560
  49.8000        538
  49.9000        535
  50.0000        535
  50.1000        509
  50.2000        564
  50.3000        558
  50.4000        629
  50.5000        588
  50.6000        635
  50.7000        592
  50.8000        624
  50.9000        640
  51.0000        618
  51.1000        646
  51.2000        652
  51.3000        660
  51.4000        647
  51.5000        698
  51.6000        751
  51.7000        966
  51.8000       1064
  51.9000       1250
  52.0000       1283
  52.1000       1331
  52.2000       1355
  52.3000       1248
  52.4000       1216
  52.5000       1153
  52.6000        984
  52.7000        833
  52.8000        695
  52.9000        559
  53.0000        581
  53.1000        517
  53.2000        562
  53.3000        535
  53.4000        541
  53.5000        536
  53.6000        564
  53.7000        549
  53.8000        491
  53.9000        532
  54.0000        543
  54.1000        539
  54.2000        548
  54.3000        510
  54.4000        532
  54.5000        524
  54.6000        537
  54.7000        535
  54.8000        544
  54.9000        560
  55.0000        544
  55.1000        542
  55.2000        531
  55.3000        512
  55.4000        547
  55.5000        532
  55.6000        533
  55.7000        561
  55.8000        555
  55.9000        545
  56.0000        488
  56.1000        520
  56.2000        534
  56.3000        536
  56.4000        530
  56.5000        572
  56.6000        530
  56.7000        564
  56.8000        544
  56.9000        490
  57.0000        533
  57.1000        550
  57.2000        549
  57.3000        544
  57.4000        547
  57.5000        531
  57.6000        510
  57.7000        541
  57.8000        481
  57.9000        569
  58.0000        552
  58.1000        536
  58.2000        521
  58.3000        523
  58.4000        529
  58.5000        462
  58.6000        510
  58.7000        563
  58.8000        536
  58.9000        528
  59.0000        588
  59.1000        518
  59.2000        574
  59.3000        597
  59.4000        578
  59.5000        603
  59.6000        566
  59.7000        565
  59.8000        608
  59.9000        570
  60.0000        599
  60.1000        543
  60.2000        550
  60.3000        562
  60.4000        556
  60.5000        522
  60.6000        568
  60.7000        520
  60.8000        541
  60.9000        555
  61.0000        500
  61.1000        544
  61.2000        486
  61.3000        498
  61.4000        545
  61.5000        512
  61.6000        541
  61.7000        535
  61.8000        533
  61.9000        520
  62.0000        511
  62.1000        585
  62.2000        584
  62.3000        508
  62.4000        528
  62.5000        542
  62.6000        484
  62.7000        499
  62.8000        559
  62.9000        546
  63.0000        527
  63.1000        517
  63.2000        507
  63.3000        535
  63.4000        509
  63.5000        552
  63.6000        559
  63.7000        516
  63.8000        556
  63.9000        477
  64.0000        489
  64.1000        509
  64.2000        532
  64.3000        480
  64.4000        543
  64.5000        535
  64.6000        523
  64.7000        507
  64.8000        526
  64.9000        542
  65.0000        535
  65.1000        533
  65.2000        555
  65.3000        530
  65.4000        525
  65.5000        551
  65.6000        509
  65.7000        543
  65.8000        553
  65.9000        530
  66.0000        532
  66.1000        503
  66.2000        551
  66.3000        507
  66.4000        541
  66.5000        537
  66.6000        559
  66.7000        560
  66.8000        564
  66.9000        526
  67.0000        551
  67.1000        496
  67.2000        554
  67.3000        498
  67.4000        531
  67.5000        561
  67.6000        505
  67.7000        526
  67.8000        568
  67.9000        514
  68.0000        532
  68.1000        529
  68.2000        529
  68.3000        554
  68.4000        557
  68.5000        524
  68.6000        563
  68.7000        507
  68.8000        507
  68.9000        527
  69.0000        516
  69.1000        507
  69.2000        557
  69.3000        515
  69.4000        503
  69.5000        559
  69.6000        493
  69.7000        508
  69.8000        523
  69.9000        505
  70.0000        535
  70.1000        507
  70.2000        504
  70.3000        494
  70.4000        528
  70.5000        503
  70.6000        534
  70.7000        543
  70.8000        537
  70.9000        516
  71.0000        517
  71.1000        507
  71.2000        513
  71.3000        489
  71.4000        524
  71.5000        496
  71.6000        485
  71.7000        536
  71.8000        512
  71.9000        548
  72.0000        508
  72.1000        525
  72.2000        533
  72.3000        551
  72.4000        487
  72.5000        526
  72.6000        553
  72.7000        457
  72.8000        540
  72.9000        528
  73.0000        506
  73.1000        507
  73.2000        513
  73.3000        549
  73.4000        520
  73.5000        575
  73.6000        486
  73.7000        509
  73.8000        527
  73.9000        511
  74.0000        532
  74.1000        546
  74.2000        517
  74.3000        503
  74.4000        517
  74.5000        511
  74.6000        517
  74.7000        523
  74.8000        524
  74.9000        502
  75.0000        518
  75.1000        546
  75.2000        542
  75.3000        532
  75.4000        530
  75.5000        540
  75.6000        517
  75.7000        527
  75.8000        523
  75.9000        565
  76.0000        526
  76.1000        571
  76.2000        599
  76.3000        590
  76.4000        610
  76.5000        603
  76.6000        735
  76.7000        653
  76.8000        699
  76.9000        684
  77.0000        709
  77.1000        740
  77.2000        629
  77.3000        595
  77.4000        603
  77.5000        615
  77.6000        547
  77.7000        555
  77.8000        520
  77.9000        501
  78.0000        550
  78.1000        508
  78.2000        483
  78.3000        516
  78.4000        563
  78.5000        543
  78.6000        531
  78.7000        524
  78.8000        525
  78.9000        519
  79.0000        528
  79.1000        492
  79.2000        561
  79.3000        532
  79.4000        516
  79.5000        488
  79.6000        534
  79.7000        507
  79.8000        553
  79.9000        537
  80.0000        541
  80.1000        561
  80.2000        504
  80.3000        525
  80.4000        507
  80.5000        527
  80.6000        491
  80.7000        482
  80.8000        542
  80.9000        521
  81.0000        538
  81.1000        476
  81.2000        492
  81.3000        515
  81.4000        520
  81.5000        485
  81.6000        524
  81.7000        502
  81.8000        494
  81.9000        522
  82.0000        489
  82.1000        486
  82.2000        495
  82.3000        529
  82.4000        561
  82.5000        528
  82.6000        524
  82.7000        525
  82.8000        506
  82.9000        512
  83.0000        499
  83.1000        514
  83.2000        524
  83.3000        553
  83.4000        505
  83.5000        493
  83.6000        510
  83.7000        569
  83.8000        516
  83.9000        518
  84.0000        556
  84.1000        495
  84.2000        478
  84.3000        508
  84.4000        513
  84.5000        527
  84.6000        520
  84.7000        520
  84.8000        500
  84.9000        487
  85.0000        504
  85.1000        485
  85.2000        560
  85.3000        537
  85.4000        534
  85.5000        480
  85.6000        485
  85.7000        502
  85.8000        503
  85.9000        576
  86.0000        504
  86.1000        561
  86.2000        517
  86.3000        536
  86.4000        513
  86.5000        542
  86.6000        544
  86.7000        502
  86.8000        498
  86.9000        506
  87.0000        494
  87.1000        513
  87.2000        513
  87.3000        518
  87.4000        496
  87.5000        481
  87.6000        518
  87.7000        521
  87.8000        559
  87.9000        519
  88.0000        567
  88.1000        519
  88.2000        533
  88.3000        570
  88.4000        490
  88.5000        495
  88.6000        583
  88.7000        538
  88.8000        566
  88.9000        542
  89.0000        566
  89.1000        589
  89.2000        559
  89.3000        565
  89.4000        604
  89.5000        539
  89.6000        603
  89.7000        541
  89.8000        554
  89.9000        560
  90.0000        541
  90.1000        552
  90.2000        558
  90.3000        537
  90.4000        549
  90.5000        519
  90.6000        505
  90.7000        562
  90.8000        519
  90.9000        507
  91.0000        529
  91.1000        522
  91.2000        511
  91.3000        526
  91.4000        548
  91.5000        581
  91.6000        520
  91.7000        482
  91.8000        490
  91.9000        537
  92.0000        503
  92.1000        515
  92.2000        528
  92.3000        508
  92.4000        531
  92.5000        505
  92.6000        510
  92.7000        496
  92.8000        536
  92.9000        565
  93.0000        503
  93.1000        487
  93.2000        536
  93.3000        547
  93.4000        538
  93.5000        498
  93.6000        487
  93.7000        538
  93.8000        499
  93.9000        507
  94.0000        463
  94.1000        524
  94.2000        533
  94.3000        505
  94.4000        514
  94.5000        533
  94.6000        516
  94.7000        535
  94.8000        510
  94.9000        497
  95.0000        527
  95.1000        496
  95.2000        580
  95.3000        506
  95.4000        490
  95.5000        521
  95.6000        497
  95.7000        545
  95.8000        506
  95.9000        496
  96.0000        497
  96.1000        489
  96.2000        489
  96.3000        499
  96.4000        540
  96.5000        520
  96.6000        515
  96.7000        504
  96.8000        514
  96.9000        527
  97.0000        536
  97.1000        511
  97.2000        518
  97.3000        528
  97.4000        537
  97.5000        525
  97.6000        557
  97.7000        518
  97.8000        540
  97.9000        533
  98.0000        537
  98.1000        558
  98.2000        492
  98.3000        520
  98.4000        583
  98.5000        562
  98.6000        598
  98.7000        636
  98.8000        759
  98.9000        782
  99.0000        787
  99.1000        921
  99.2000        891
  99.3000       1000
  99.4000        967
  99.5000        921
  99.6000        892
  99.7000        855
  99.8000        744
  99.9000        777
 100.0000        683
 100.1000        609
 100.2000        575
 100.3000        570
 100.4000        552
 100.5000        567
 100.6000        532
 100.7000        523
 100.8000        518
 100.9000        546
 101.0000        532
 101.1000        487
 101.2000        541
 101.3000        528
 101.4000        517
 101.5000        520
 101.6000        568
 101.7000        531
 101.8000        552
 101.9000        521
 102.0000        490
 102.1000        507
 102.2000        489
 102.3000        527
 102.4000        508
 102.5000        541
 102.6000        519
 102.7000        460
 102.8000        479
 102.9000        472
 103.0000        499
 103.1000        517
 103.2000        512
 103.3000        500
 103.4000        503
 103.5000        472
 103.6000        534
 103.7000        509
 103.8000        490
 103.9000        523
 104.0000        517
 104.1000        520
 104.2000        499
 104.3000        528
 104.4000        582
 104.5000        517
 104.6000        505
 104.7000        541
 104.8000        534
 104.9000        518
 105.0000        506
 105.1000        495
 105.2000        478
 105.3000        528
 105.4000        522
 105.5000        549
 105.6000        551
 105.7000        520
 105.8000        507
 105.9000        524
 106.0000        512
 106.1000        529
 106.2000        519
 106.3000        487
 106.4000        489
 106.5000        499
 106.6000        513
 106.7000        554
 106.8000        530
 106.9000        512
 107.0000        504
 107.1000        467
 107.2000        481
 107.3000        510
 107.4000        537
 107.5000        481
 107.6000        517
 107.7000        529
 107.8000        478
 107.9000        503
 108.0000        505
 108.1000        528
 108.2000        584
 108.3000        486
 108.4000        543
 108.5000        512
 108.6000        488
 108.7000        504
 108.8000        505
 108.9000        489
 109.0000        496
 109.1000        552
 109.2000        509
 109.3000        477
 109.4000        519
 109.5000        494
 109.6000        521
 109.7000        503
 109.8000        502
 109.9000        565
 110.0000        531
 110.1000        515
 110.2000        513
 110.3000        549
 110.4000        580
 110.5000        520
 110.6000        548
 110.7000        534
 110.8000        577
 110.9000        601
 111.0000        533
 111.1000        554
 111.2000        526
 111.3000        538
 111.4000        519
 111.5000        551
 111.6000        555
 111.7000        574
 111.8000        550
 111.9000        567
 112.0000        513
 112.1000        478
 112.2000        530
 112.3000        505
 112.4000        508
 112.5000        514
 112.6000        487
 112.7000        526
 112.8000        512
 112.9000        486
 113.0000        483
 113.1000        524
 113.2000        517
 113.3000        515
 113.4000        524
 113.5000        536
 113.6000        496
 113.7000        523
 113.8000        531
 113.9000        468
 114.0000        535
 114.1000        490
 114.2000        512
 114.3000        464
 114.4000        537
 114.5000        561
 114.6000        525
 114.7000        492
 114.8000        546
 114.9000        518
 115.0000        536
 115.1000        437
 115.2000        537
 115.3000        540
 115.4000        511
 115.5000        490
 115.6000        535
 115.7000        549
 115.8000        517
 115.9000        562
 116.0000        533
 116.1000        574
 116.2000        519
 116.3000        514
 116.4000        505
 116.5000        514
 116.6000        506
 116.7000        514
 116.8000        516
 116.9000        543
 117.0000        508
 117.1000        492
 117.2000        528
 117.3000        487
 117.4000        526
 117.5000        523
 117.6000        546
 117.7000        521
 117.8000        535
 117.9000        485
 118.0000        576
 118.1000        503
 118.2000        521
 118.3000        534
 118.4000        509
 118.5000        479
 118.6000        511
 118.7000        473
 118.8000        476
 118.9000        549
 119.0000        514
 119.1000        517
 119.2000        529
 119.3000        569
 119.4000        523
 119.5000        535
 119.6000        498
 119.7000        516
 119.8000        496
 119.9000        519
 120.0000        504
 120.1000        529
 120.2000        508
 120.3000        494
 120.4000        507
 120.5000        538
 120.6000        532
 120.7000        522
 120.8000        529
 120.9000        522
 121.0000        537
 121.1000        492
 121.2000        518
 121.3000        511
 121.4000        507
 121.5000        537
 121.6000        484
 121.7000        523
 121.8000        497
 121.9000        534
 122.0000        507
 122.1000        512
 122.2000        509
 122.3000        535
 122.4000        511
 122.5000        543
 122.6000        487
 122.7000        529
 122.8000        521
 122.9000        561
 123.0000        505
 123.1000        597
 123.2000        561
 123.3000        569
 123.4000        568
 123.5000        554
 123.6000        556
 123.7000        598
 123.8000        554
 123.9000        548
 124.0000        560
 124.1000        526
 124.2000        546
 124.3000        512
 124.4000        506
 124.5000        513
 124.6000        548
 124.7000        489
 124.8000        524
 124.9000        546
 125.0000        503
 125.1000        552
 125.2000        563
 125.3000        523
 125.4000        530
 125.5000        501
 125.6000        467
 125.7000        498
 125.8000        542
 125.9000        547
 126.0000        481
 126.1000        541
 126.2000        525
 126.3000        497
 126.4000        521
 126.5000        532
 126.6000        525
 126.7000        517
 126.8000        563
 126.9000        486
 127.0000        501
 127.1000        527
 127.2000        487
 127.3000        480
 127.4000        475
 127.5000        514
[...]
 129.1000        404
 129.2000        431
 129.3000        398
 129.4000        419
 129.5000        383
 129.6000        393
 129.7000        354
 129.8000        351
 129.9000        363
 130.0000        395

; Data for range 53
_DRIVE = COUPLED
_STEPTIME = 0.2
_STEPSIZE = 0.1
_STEPMODE = C
_START = 40
_THETA = 20
_2THETA = 40
_KHI = 80
_PHI = 0
_X = -25
_Y = 0
_Z = 0
_DETECTOR = 1
; Detector type : Scintillation counter
_HV = 687
_GAIN = 80
_LLD = 0.69
_ULD = 1.866
_DETECTORSLIT = unkn
_AUX1 = 0
_AUX2 = 0
_AUX3 = 0
_TIMESTARTED = 1.03e+004
_TEMP_RATE = -1
_TEMP_DELAY = -1
_KV = 35
_MA = 40
_RANGE_WL = 1.78897
_3DPLANE = 0
_V4_ADDITIONALDETECTOR = 0
_V4_D8_DIBNUM = 1
_V4_DETECTORNAME = "Detector 1"
_V4_TTLDETECTOR = None
_V4_DETECTORTYPE = 1
_V4_DETECTORFLAGS = 524545
_V4_DETECTORHV = 687
_V4_DETECTORGAIN = 80
_V4_DETECTORLLD1 = 0.69
_V4_DETECTORWW1 = 1.176
_V4_DETECTORLLD2 = 0
_V4_DETECTORWW2 = 0
_V4_DETECTORPS = 0
_V4_DETECTORDT = 0
_V4_DETECTORPILEUPTIME = 0
_V4_COUNTERS_MASK = 1
_V4_DRIVES_MASK = 0
_V4_ENCODERS_MASK = 0
_2THETACOUNTS = 1
; 2THETA  Cnt1_D1
  40.0000        176
  40.1000        159
  40.2000        173
  40.3000        166
  40.4000        179
  40.5000        145
  40.6000        167
  40.7000        155
  40.8000        168
  40.9000        175
  41.0000        165
  41.1000        170
  41.2000        184
  41.3000        166
  41.4000        183
  41.5000        160
  41.6000        151
  41.7000        125
  41.8000        145
  41.9000        165
  42.0000        186
  42.1000        146
  42.2000        168
  42.3000        173
  42.4000        180
  42.5000        182
  42.6000        186
  42.7000        199
  42.8000        197
  42.9000        205
  43.0000        251
  43.1000        233
  43.2000        269
  43.3000        268
  43.4000        267
  43.5000        272
  43.6000        255
  43.7000        257
  43.8000        229
  43.9000        226
  44.0000        220
  44.1000        224
  44.2000        187
  44.3000        180
  44.4000        187
  44.5000        158
  44.6000        162
  44.7000        153
  44.8000        202
  44.9000        178
  45.0000        180
  45.1000        164
  45.2000        183
  45.3000        166
  45.4000        180
  45.5000        173
  45.6000        135
  45.7000        140
  45.8000        179
  45.9000        184
  46.0000        169
  46.1000        198
  46.2000        186
  46.3000        165
  46.4000        163
  46.5000        166
  46.6000        162
  46.7000        167
  46.8000        173
  46.9000        164
  47.0000        169
  47.1000        182
  47.2000        190
  47.3000        167
  47.4000        178
  47.5000        175
  47.6000        186
  47.7000        174
  47.8000        192
  47.9000        175
  48.0000        194
  48.1000        172
  48.2000        169
  48.3000        201
  48.4000        181
  48.5000        184
  48.6000        152
  48.7000        187
  48.8000        202
  48.9000        199
  49.0000        163
  49.1000        208
  49.2000        164
  49.3000        177
  49.4000        178
  49.5000        200
  49.6000        214
  49.7000        209
  49.8000        210
  49.9000        227
  50.0000        231
  50.1000        234
  50.2000        283
  50.3000        267
  50.4000        269
  50.5000        300
  50.6000        285
  50.7000        338
  50.8000        342
  50.9000        320
  51.0000        371
  51.1000        381
  51.2000        427
  51.3000        442
  51.4000        509
  51.5000        517
  51.6000        607
  51.7000        656
  51.8000        716
  51.9000        793
  52.0000        763
  52.1000        803
  52.2000        820
  52.3000        798
  52.4000        823
  52.5000        730
  52.6000        698
  52.7000        669
  52.8000        583
  52.9000        491
  53.0000        456
  53.1000        371
  53.2000        317
  53.3000        277
  53.4000        265
  53.5000        242
  53.6000        218
  53.7000        211
  53.8000        204
  53.9000        194
  54.0000        218
  54.1000        196
  54.2000        210
  54.3000        202
  54.4000        227
  54.5000        218
  54.6000        189
  54.7000        174
  54.8000        198
  54.9000        198
  55.0000        195
  55.1000        216
  55.2000        215
  55.3000        191
  55.4000        209
  55.5000        193
  55.6000        226
  55.7000        213
  55.8000        189
  55.9000        223
  56.0000        222
  56.1000        191
  56.2000        203
  56.3000        208
  56.4000        229
  56.5000        174
  56.6000        193
  56.7000        225
  56.8000        239
  56.9000        217
  57.0000        192
  57.1000        190
  57.2000        195
  57.3000        224
  57.4000        227
  57.5000        194
  57.6000        203
  57.7000        231
  57.8000        220
  57.9000        201
  58.0000        210
  58.1000        196
  58.2000        214
  58.3000        206
  58.4000        216
  58.5000        202
  58.6000        208
  58.7000        214
  58.8000        224
  58.9000        223
  59.0000        225
  59.1000        238
  59.2000        206
  59.3000        214
  59.4000        245
  59.5000        228
  59.6000        242
  59.7000        244
  59.8000        230
  59.9000        241
  60.0000        229
  60.1000        225
  60.2000        215
  60.3000        207
  60.4000        221
  60.5000        226
  60.6000        210
  60.7000        215
  60.8000        229
  60.9000        213
  61.0000        225
  61.1000        251
  61.2000        217
  61.3000        228
  61.4000        221
  61.5000        206
  61.6000        219
  61.7000        205
  61.8000        226
  61.9000        233
  62.0000        231
  62.1000        245
  62.2000        217
  62.3000        199
  62.4000        243
  62.5000        238
  62.6000        214
  62.7000        225
  62.8000        224
  62.9000        217
  63.0000        234
  63.1000        213
  63.2000        211
  63.3000        253
  63.4000        234
  63.5000        216
  63.6000        236
  63.7000        245
  63.8000        204
  63.9000        212
  64.0000        231
  64.1000        220
  64.2000        214
  64.3000        231
  64.4000        236
  64.5000        240
  64.6000        228
  64.7000        223
  64.8000        212
  64.9000        255
  65.0000        233
  65.1000        237
  65.2000        248
  65.3000        270
  65.4000        239
  65.5000        246
  65.6000        239
  65.7000        210
  65.8000        219
  65.9000        234
  66.0000        245
  66.1000        220
  66.2000        233
  66.3000        222
  66.4000        229
  66.5000        267
  66.6000        221
  66.7000        256
  66.8000        255
  66.9000        206
  67.0000        251
  67.1000        223
  67.2000        229
  67.3000        235
  67.4000        230
  67.5000        243
  67.6000        237
  67.7000        258
  67.8000        229
  67.9000        257
  68.0000        255
  68.1000        240
  68.2000        226
  68.3000        246
  68.4000        232
  68.5000        214
  68.6000        236
  68.7000        228
  68.8000        224
  68.9000        258
  69.0000        275
  69.1000        243
  69.2000        246
  69.3000        251
  69.4000        240
  69.5000        237
  69.6000        259
  69.7000        294
  69.8000        234
  69.9000        255
  70.0000        248
  70.1000        219
  70.2000        256
  70.3000        224
  70.4000        246
  70.5000        250
  70.6000        238
  70.7000        248
  70.8000        240
  70.9000        228
  71.0000        258
  71.1000        254
  71.2000        238
  71.3000        244
  71.4000        261
  71.5000        265
  71.6000        247
  71.7000        271
  71.8000        267
  71.9000        276
  72.0000        272
  72.1000        261
  72.2000        283
  72.3000        245
  72.4000        275
  72.5000        276
  72.6000        254
  72.7000        239
  72.8000        256
  72.9000        251
  73.0000        240
  73.1000        280
  73.2000        256
  73.3000        249
  73.4000        273
  73.5000        243
  73.6000        254
  73.7000        258
  73.8000        264
  73.9000        291
  74.0000        279
  74.1000        258
  74.2000        275
  74.3000        286
  74.4000        262
  74.5000        266
  74.6000        273
  74.7000        267
  74.8000        263
  74.9000        264
  75.0000        259
  75.1000        267
  75.2000        280
  75.3000        293
  75.4000        276
  75.5000        307
  75.6000        288
  75.7000        256
  75.8000        253
  75.9000        364
  76.0000        299
  76.1000        278
  76.2000        291
  76.3000        318
  76.4000        318
  76.5000        344
  76.6000        343
  76.7000        322
  76.8000        308
  76.9000        298
  77.0000        291
  77.1000        325
  77.2000        299
  77.3000        299
  77.4000        311
  77.5000        288
  77.6000        295
  77.7000        312
  77.8000        308
  77.9000        314
  78.0000        270
  78.1000        263
  78.2000        261
  78.3000        292
  78.4000        294
  78.5000        275
  78.6000        300
  78.7000        268
  78.8000        279
  78.9000        287
  79.0000        260
  79.1000        320
  79.2000        275
  79.3000        318
  79.4000        262
  79.5000        282
  79.6000        287
  79.7000        279
  79.8000        264
  79.9000        288
  80.0000        293
  80.1000        304
  80.2000        274
  80.3000        286
  80.4000        288
  80.5000        279
  80.6000        305
  80.7000        291
  80.8000        302
  80.9000        293
  81.0000        285
  81.1000        281
  81.2000        310
  81.3000        280
  81.4000        285
  81.5000        263
  81.6000        307
  81.7000        308
  81.8000        297
  81.9000        299
  82.0000        290
  82.1000        307
  82.2000        264
  82.3000        277
  82.4000        287
  82.5000        277
  82.6000        299
  82.7000        300
  82.8000        291
  82.9000        277
  83.0000        279
  83.1000        263
  83.2000        307
  83.3000        313
  83.4000        317
  83.5000        303
  83.6000        298
  83.7000        301
  83.8000        333
  83.9000        311
  84.0000        293
  84.1000        292
  84.2000        293
  84.3000        315
  84.4000        329
  84.5000        327
  84.6000        287
  84.7000        310
  84.8000        276
  84.9000        304
  85.0000        287
  85.1000        313
  85.2000        300
  85.3000        294
  85.4000        279
  85.5000        278
  85.6000        323
  85.7000        286
  85.8000        291
  85.9000        315
  86.0000        319
  86.1000        302
  86.2000        308
  86.3000        323
  86.4000        310
  86.5000        302
  86.6000        274
  86.7000        317
  86.8000        322
  86.9000        340
  87.0000        305
  87.1000        315
  87.2000        318
  87.3000        311
  87.4000        319
  87.5000        283
  87.6000        294
  87.7000        302
  87.8000        323
  87.9000        318
  88.0000        297
  88.1000        332
  88.2000        298
  88.3000        346
  88.4000        339
  88.5000        319
  88.6000        338
  88.7000        322
  88.8000        295
  88.9000        319
  89.0000        350
  89.1000        363
  89.2000        346
  89.3000        341
  89.4000        350
  89.5000        320
  89.6000        334
  89.7000        336
  89.8000        369
  89.9000        348
  90.0000        353
  90.1000        338
  90.2000        309
  90.3000        323
  90.4000        322
  90.5000        338
  90.6000        343
  90.7000        332
  90.8000        288
  90.9000        315
  91.0000        349
  91.1000        326
  91.2000        349
  91.3000        323
  91.4000        314
  91.5000        309
  91.6000        376
  91.7000        333
  91.8000        319
  91.9000        292
  92.0000        325
  92.1000        320
  92.2000        335
  92.3000        340
  92.4000        335
  92.5000        337
  92.6000        331
  92.7000        345
  92.8000        323
  92.9000        344
  93.0000        349
  93.1000        311
  93.2000        337
  93.3000        345
  93.4000        337
  93.5000        309
  93.6000        349
  93.7000        330
  93.8000        329
  93.9000        309
  94.0000        351
  94.1000        307
  94.2000        325
  94.3000        362
  94.4000        354
  94.5000        326
  94.6000        340
  94.7000        359
  94.8000        322
  94.9000        293
  95.0000        327
  95.1000        355
  95.2000        354
  95.3000        332
  95.4000        371
  95.5000        321
  95.6000        345
  95.7000        331
  95.8000        369
  95.9000        347
  96.0000        355
  96.1000        329
  96.2000        328
  96.3000        324
  96.4000        332
  96.5000        339
  96.6000        345
  96.7000        338
  96.8000        353
  96.9000        368
  97.0000        346
  97.1000        349
  97.2000        324
  97.3000        361
  97.4000        361
  97.5000        349
  97.6000        329
  97.7000        335
  97.8000        347
  97.9000        398
  98.0000        419
  98.1000        414
  98.2000        431
  98.3000        456
  98.4000        452
  98.5000        472
  98.6000        489
  98.7000        509
  98.8000        522
  98.9000        504
  99.0000        515
  99.1000        537
  99.2000        550
  99.3000        543
  99.4000        557
  99.5000        593
  99.6000        553
  99.7000        533
  99.8000        540
  99.9000        494
 100.0000        524
 100.1000        486
 100.2000        455
 100.3000        404
 100.4000        379
 100.5000        389
 100.6000        372
 100.7000        371
 100.8000        371
 100.9000        380
 101.0000        355
 101.1000        360
 101.2000        369
 101.3000        410
 101.4000        413
 101.5000        356
 101.6000        329
 101.7000        357
 101.8000        328
 101.9000        348
 102.0000        328
 102.1000        347
 102.2000        378
 102.3000        354
 102.4000        380
 102.5000        361
 102.6000        358
 102.7000        369
 102.8000        400
 102.9000        340
 103.0000        355
 103.1000        364
 103.2000        383
 103.3000        362
 103.4000        366
 103.5000        342
 103.6000        369
 103.7000        387
 103.8000        353
 103.9000        357
 104.0000        396
 104.1000        348
 104.2000        371
 104.3000        368
 104.4000        391
 104.5000        362
 104.6000        396
 104.7000        424
 104.8000        400
 104.9000        369
 105.0000        403
 105.1000        399
 105.2000        363
 105.3000        363
 105.4000        386
 105.5000        327
 105.6000        385
 105.7000        400
 105.8000        344
 105.9000        366
 106.0000        360
 106.1000        359
 106.2000        386
 106.3000        386
 106.4000        397
 106.5000        366
 106.6000        375
 106.7000        376
 106.8000        382
 106.9000        397
 107.0000        377
 107.1000        395
 107.2000        362
 107.3000        360
 107.4000        393
 107.5000        382
 107.6000        378
 107.7000        405
 107.8000        396
 107.9000        384
 108.0000        412
 108.1000        394
 108.2000        369
 108.3000        348
 108.4000        399
 108.5000        393
 108.6000        402
 108.7000        427
 108.8000        366
 108.9000        379
 109.0000        419
 109.1000        405
 109.2000        382
 109.3000        377
 109.4000        387
 109.5000        408
 109.6000        383
 109.7000        374
 109.8000        398
 109.9000        406
 110.0000        423
 110.1000        404
 110.2000        452
 110.3000        421
 110.4000        394
 110.5000        409
 110.6000        429
 110.7000        387
 110.8000        386
 110.9000        394
 111.0000        434
 111.1000        420
 111.2000        406
 111.3000        404
 111.4000        483
 111.5000        402
 111.6000        402
 111.7000        428
 111.8000        388
 111.9000        405
 112.0000        386
 112.1000        420
 112.2000        395
 112.3000        345
 112.4000        386
 112.5000        409
 112.6000        406
 112.7000        448
 112.8000        392
 112.9000        422
 113.0000        392
 113.1000        392
 113.2000        423
 113.3000        375
 113.4000        399
 113.5000        413
 113.6000        389
 113.7000        434
 113.8000        404
 113.9000        392
 114.0000        394
 114.1000        380
 114.2000        377
 114.3000        385
 114.4000        409
 114.5000        395
 114.6000        377
 114.7000        408
 114.8000        372
 114.9000        423
 115.0000        372
 115.1000        412
 115.2000        379
 115.3000        363
 115.4000        398
 115.5000        379
 115.6000        390
 115.7000        401
 115.8000        417
 115.9000        414
 116.0000        398
 116.1000        428
 116.2000        378
 116.3000        397
 116.4000        405
 116.5000        416
 116.6000        430
 116.7000        427
 116.8000        399
 116.9000        404
 117.0000        406
 117.1000        410
 117.2000        445
 117.3000        395
 117.4000        462
 117.5000        409
 117.6000        408
 117.7000        410
 117.8000        409
 117.9000        407
 118.0000        386
 118.1000        397
 118.2000        421
 118.3000        423
 118.4000        445
 118.5000        381
 118.6000        414
 118.7000        460
 118.8000        460
 118.9000        416
 119.0000        397
 119.1000        410
 119.2000        412
 119.3000        445
 119.4000        397
 119.5000        399
 119.6000        410
 119.7000        439
 119.8000        401
 119.9000        414
 120.0000        411
 120.1000        404
 120.2000        423
 120.3000        402
 120.4000        386
 120.5000        405
 120.6000        428
 120.7000        415
 120.8000        428
 120.9000        401
 121.0000        421
 121.1000        438
 121.2000        387
 121.3000        410
 121.4000        411
 121.5000        417
 121.6000        400
 121.7000        452
 121.8000        420
 121.9000        436
 122.0000        453
 122.1000        428
 122.2000        419
 122.3000        448
 122.4000        474
 122.5000        487
 122.6000        525
 122.7000        519
 122.8000        485
 122.9000        529
 123.0000        528
 123.1000        572
 123.2000        571
 123.3000        552
 123.4000        546
 123.5000        566
 123.6000        539
 123.7000        484
 123.8000        515
 123.9000        499
 124.0000        519
 124.1000        464
 124.2000        522
 124.3000        430
 124.4000        481
 124.5000        441
 124.6000        460
 124.7000        437
 124.8000        387
 124.9000        433
 125.0000        446
 125.1000        435
 125.2000        410
 125.3000        429
 125.4000        417
 125.5000        456
 125.6000        415
 125.7000        410
 125.8000        423
 125.9000        423
 126.0000        428
 126.1000        384
 126.2000        402
 126.3000        447
 126.4000        396
 126.5000        429
 126.6000        414
 126.7000        432
 126.8000        415
 126.9000        392
 127.0000        421
 127.1000        425
 127.2000        412
 127.3000        414
 127.4000        405
 127.5000        400
 127.6000        430
 127.7000        417
 127.8000        416
 127.9000        450
 128.0000        408
 128.1000        416
 128.2000        447
 128.3000        396
 128.4000        423
 128.5000        400
 128.6000        406
 128.7000        426
 128.8000        393
 128.9000        466
 129.0000        427
 129.1000        409
 129.2000        403
 129.3000        429
 129.4000        392
 129.5000        420
 129.6000        399
 129.7000        438
 129.8000        411
 129.9000        440
 130.0000        427