File: exp_dat/old/exp_2013_11_11/00pct_180L.uxd
; (content of file C:\DIFFDAT1\GIFT\MDL\Seawoong Lee\20131104_MV8\equal_area_maxkhi080_n8_2th40_130_x00y25_180L_2.raw)
_FILEVERSION = 3
_SAMPLE =
_+SAMPLE =
_SITE = Korea
_USER = Admin
_GONIOMETER_CODE = 20
; Goniometer : D8 theta/2theta, stage : Unknown
_SAMPLE_CHANGER_CODE = 0
_ATTACHMENTS_CODE = 0
_GONIOMETER_RADIUS = 300
_FIXED_DIVSLIT = 1
_FIXED_SAMPLESLIT = 0
_SOLLER_SLITS = 2
_FIXED_DETSLIT = 0.1
_MONOCHROMATOR = 0
; Incident beam monochromator : None
_SOLLER_SLITS_2 = 2
_THIN_FILM = N
_BETA_FILTER = Y
_FIXED_ANTISLIT = 0.6
_ANALYZER_CODE = 0
; Received beam analyzer : None
_DATEMEASURED = "09-Nov-2013 03:26:58"
_WL_UNIT = A
_WL1 = 1.78897
_WL2 = 1.79285
_WL3 = 1.62079
_WLRATIO = 0.5
_ANODE = Co
_V4_INF_CREATOR = XRDWizard
_V4_INF_CREATOR_VERSION = V2.9.0.22
_V4_INF_WIZARD_VERSION = V2.9.0.22
_V4_INF_WIZARD_ADDINS = V2.9.0.22
_V4_INF_WIZARD_DOCTYPE = XRD
_V4_INF_OSUSER = Postech
_V4_INF_USER = Admin
_V4_INF_SITE = Korea

; Data for range 1
_DRIVE = COUPLED
_STEPTIME = 0.2
_STEPSIZE = 0.1
_STEPMODE = C
_START = 40
_THETA = 20
_2THETA = 40
_KHI = 0
_PHI = 0
_X = 0
_Y = 25
_Z = 0
_DETECTOR = 1
; Detector type : Scintillation counter
_HV = 687
_GAIN = 80
_LLD = 0.69
_ULD = 1.866
_DETECTORSLIT = unkn
_AUX1 = 0
_AUX2 = 0
_AUX3 = 0
_TIMESTARTED = 28
_TEMP_RATE = -1
_TEMP_DELAY = -1
_KV = 35
_MA = 40
_RANGE_WL = 1.78897
_3DPLANE = 0
_V4_ADDITIONALDETECTOR = 0
_V4_D8_DIBNUM = 1
_V4_DETECTORNAME = "Detector 1"
_V4_TTLDETECTOR = None
_V4_DETECTORTYPE = 1
_V4_DETECTORFLAGS = 524545
_V4_DETECTORHV = 687
_V4_DETECTORGAIN = 80
_V4_DETECTORLLD1 = 0.69
_V4_DETECTORWW1 = 1.176
_V4_DETECTORLLD2 = 0
_V4_DETECTORWW2 = 0
_V4_DETECTORPS = 0
_V4_DETECTORDT = 0
_V4_DETECTORPILEUPTIME = 0
_V4_COUNTERS_MASK = 1
_V4_DRIVES_MASK = 0
_V4_ENCODERS_MASK = 0
_2THETACOUNTS = 1
; 2THETA  Cnt1_D1
  40.0000        507
  40.1000        517
  40.2000        544
  40.3000        530
  40.4000        522
  40.5000        510
  40.6000        474
  40.7000        469
  40.8000        594
  40.9000        516
  41.0000        500
  41.1000        490
  41.2000        529
  41.3000        521
  41.4000        501
  41.5000        522
  41.6000        517
  41.7000        522
  41.8000        508
  41.9000        515
  42.0000        505
  42.1000        562
  42.2000        501
  42.3000        517
  42.4000        514
  42.5000        504
  42.6000        534
  42.7000        474
  42.8000        536
  42.9000        514
  43.0000        482
  43.1000        518
  43.2000        522
  43.3000        508
  43.4000        517
  43.5000        554
  43.6000        518
  43.7000        535
  43.8000        514
  43.9000        500
  44.0000        495
  44.1000        506
  44.2000        504
  44.3000        505
  44.4000        510
  44.5000        534
  44.6000        524
  44.7000        532
  44.8000        503
  44.9000        513
  45.0000        500
  45.1000        550
  45.2000        497
  45.3000        525
  45.4000        532
  45.5000        509
  45.6000        494
  45.7000        530
  45.8000        515
  45.9000        567
  46.0000        514
  46.1000        513
  46.2000        543
  46.3000        529
  46.4000        504
  46.5000        548
  46.6000        551
  46.7000        456
  46.8000        481
  46.9000        490
  47.0000        504
  47.1000        558
  47.2000        562
  47.3000        514
  47.4000        521
  47.5000        555
  47.6000        513
  47.7000        489
  47.8000        507
  47.9000        510
  48.0000        522
  48.1000        494
  48.2000        454
  48.3000        483
  48.4000        507
  48.5000        552
  48.6000        544
  48.7000        544
  48.8000        494
  48.9000        500
  49.0000        555
  49.1000        513
  49.2000        475
  49.3000        491
  49.4000        525
  49.5000        523
  49.6000        525
  49.7000        509
  49.8000        501
  49.9000        509
  50.0000        519
  50.1000        530
  50.2000        502
  50.3000        529
  50.4000        537
  50.5000        546
  50.6000        546
  50.7000        575
  50.8000        548
  50.9000        618
  51.0000        549
  51.1000        523
  51.2000        544
  51.3000        540
  51.4000        575
  51.5000        592
  51.6000        755
  51.7000        927
  51.8000       1211
  51.9000       1218
  52.0000       1296
  52.1000       1235
  52.2000       1274
  52.3000       1324
  52.4000       1267
  52.5000       1117
  52.6000        903
  52.7000        684
  52.8000        589
  52.9000        501
  53.0000        481
  53.1000        504
  53.2000        546
  53.3000        503
  53.4000        502
  53.5000        519
  53.6000        521
  53.7000        474
  53.8000        506
  53.9000        523
  54.0000        491
  54.1000        524
  54.2000        482
  54.3000        547
  54.4000        493
  54.5000        509
  54.6000        529
  54.7000        511
  54.8000        520
  54.9000        483
  55.0000        517
  55.1000        501
  55.2000        482
  55.3000        521
  55.4000        497
  55.5000        484
  55.6000        516
  55.7000        500
  55.8000        527
  55.9000        515
  56.0000        529
  56.1000        520
  56.2000        525
  56.3000        493
  56.4000        513
  56.5000        487
  56.6000        487
  56.7000        523
  56.8000        493
  56.9000        466
  57.0000        504
  57.1000        513
  57.2000        530
  57.3000        544
  57.4000        533
  57.5000        476
  57.6000        482
  57.7000        508
  57.8000        515
  57.9000        505
  58.0000        523
  58.1000        503
  58.2000        511
  58.3000        522
  58.4000        518
  58.5000        504
  58.6000        513
  58.7000        471
  58.8000        481
  58.9000        463
  59.0000        492
  59.1000        529
  59.2000        537
  59.3000        547
  59.4000        538
  59.5000        589
  59.6000        542
  59.7000        571
  59.8000        567
  59.9000        551
  60.0000        536
  60.1000        516
  60.2000        527
  60.3000        508
  60.4000        500
  60.5000        516
  60.6000        512
  60.7000        484
  60.8000        455
  60.9000        497
  61.0000        528
  61.1000        550
  61.2000        549
  61.3000        470
  61.4000        554
  61.5000        537
  61.6000        501
  61.7000        500
  61.8000        506
  61.9000        489
  62.0000        492
  62.1000        495
  62.2000        516
  62.3000        493
  62.4000        530
  62.5000        498
  62.6000        483
  62.7000        501
  62.8000        491
  62.9000        452
  63.0000        520
  63.1000        515
  63.2000        501
  63.3000        466
  63.4000        515
  63.5000        545
  63.6000        502
  63.7000        469
  63.8000        503
  63.9000        496
  64.0000        471
  64.1000        489
  64.2000        503
  64.3000        500
  64.4000        504
  64.5000        470
  64.6000        513
  64.7000        555
  64.8000        472
  64.9000        501
  65.0000        478
  65.1000        505
  65.2000        516
  65.3000        506
  65.4000        476
  65.5000        540
  65.6000        522
  65.7000        561
  65.8000        503
  65.9000        507
  66.0000        507
  66.1000        535
  66.2000        499
  66.3000        532
  66.4000        522
  66.5000        486
  66.6000        524
  66.7000        500
  66.8000        477
  66.9000        541
  67.0000        501
  67.1000        491
  67.2000        503
  67.3000        537
  67.4000        546
  67.5000        496
  67.6000        509
  67.7000        515
  67.8000        495
  67.9000        527
  68.0000        518
  68.1000        541
  68.2000        503
  68.3000        514
  68.4000        534
  68.5000        527
  68.6000        524
  68.7000        458
  68.8000        509
  68.9000        509
  69.0000        506
  69.1000        516
  69.2000        521
  69.3000        489
  69.4000        505
  69.5000        532
  69.6000        540
  69.7000        470
  69.8000        521
  69.9000        478
  70.0000        552
  70.1000        512
  70.2000        495
  70.3000        479
  70.4000        500
  70.5000        469
  70.6000        487
  70.7000        511
  70.8000        500
  70.9000        485
  71.0000        476
  71.1000        518
  71.2000        512
  71.3000        554
  71.4000        462
  71.5000        523
  71.6000        514
  71.7000        452
  71.8000        477
  71.9000        469
  72.0000        473
  72.1000        517
  72.2000        554
  72.3000        522
  72.4000        547
  72.5000        482
  72.6000        488
  72.7000        482
  72.8000        526
  72.9000        511
  73.0000        528
  73.1000        517
  73.2000        504
  73.3000        503
  73.4000        536
  73.5000        533
  73.6000        493
  73.7000        539
  73.8000        508
  73.9000        492
  74.0000        527
  74.1000        492
  74.2000        508
  74.3000        513
  74.4000        499
  74.5000        508
  74.6000        518
  74.7000        469
  74.8000        494
  74.9000        550
  75.0000        492
  75.1000        504
  75.2000        498
  75.3000        483
  75.4000        512
  75.5000        470
  75.6000        513
  75.7000        473
  75.8000        547
  75.9000        550
  76.0000        505
  76.1000        553
  76.2000        532
  76.3000        619
  76.4000        764
  76.5000        839
  76.6000        934
  76.7000        897
  76.8000       1010
  76.9000       1109
  77.0000       1123
  77.1000       1064
  77.2000        981
  77.3000        870
  77.4000        717
  77.5000        639
  77.6000        548
  77.7000        538
  77.8000        534
  77.9000        519
  78.0000        487
  78.1000        507
  78.2000        521
  78.3000        493
  78.4000        509
  78.5000        550
  78.6000        492
  78.7000        484
  78.8000        488
  78.9000        485
  79.0000        509
  79.1000        511
  79.2000        481
  79.3000        490
  79.4000        513
  79.5000        507
  79.6000        498
  79.7000        530
  79.8000        521
  79.9000        489
  80.0000        509
  80.1000        515
  80.2000        507
  80.3000        537
  80.4000        487
  80.5000        451
  80.6000        540
  80.7000        523
  80.8000        498
  80.9000        494
  81.0000        511
  81.1000        502
  81.2000        516
  81.3000        511
  81.4000        510
  81.5000        517
  81.6000        538
  81.7000        505
  81.8000        492
  81.9000        490
  82.0000        500
  82.1000        510
  82.2000        489
  82.3000        489
  82.4000        539
  82.5000        502
  82.6000        516
  82.7000        481
  82.8000        496
  82.9000        524
  83.0000        466
  83.1000        517
  83.2000        524
  83.3000        538
  83.4000        503
  83.5000        517
  83.6000        476
  83.7000        506
  83.8000        523
  83.9000        475
  84.0000        493
  84.1000        490
  84.2000        503
  84.3000        485
  84.4000        548
  84.5000        449
  84.6000        485
  84.7000        521
  84.8000        515
  84.9000        556
  85.0000        508
  85.1000        504
  85.2000        485
  85.3000        510
  85.4000        505
  85.5000        464
  85.6000        520
  85.7000        509
  85.8000        487
  85.9000        507
  86.0000        496
  86.1000        487
  86.2000        467
  86.3000        488
  86.4000        518
  86.5000        458
  86.6000        513
  86.7000        518
  86.8000        508
  86.9000        526
  87.0000        487
  87.1000        544
  87.2000        535
  87.3000        484
  87.4000        493
  87.5000        501
  87.6000        503
  87.7000        502
  87.8000        500
  87.9000        548
  88.0000        508
  88.1000        507
  88.2000        487
  88.3000        537
  88.4000        515
  88.5000        543
  88.6000        518
  88.7000        551
  88.8000        592
  88.9000        613
  89.0000        622
  89.1000        647
  89.2000        629
  89.3000        629
  89.4000        669
  89.5000        677
  89.6000        632
  89.7000        608
  89.8000        582
  89.9000        566
  90.0000        542
  90.1000        488
  90.2000        513
  90.3000        517
  90.4000        495
  90.5000        497
  90.6000        493
  90.7000        523
  90.8000        516
  90.9000        487
  91.0000        469
  91.1000        502
  91.2000        488
  91.3000        530
  91.4000        487
  91.5000        480
  91.6000        507
  91.7000        491
  91.8000        494
  91.9000        499
  92.0000        482
  92.1000        520
  92.2000        494
  92.3000        508
  92.4000        519
  92.5000        518
  92.6000        511
  92.7000        494
  92.8000        525
  92.9000        467
  93.0000        499
  93.1000        537
  93.2000        560
  93.3000        487
  93.4000        494
  93.5000        507
  93.6000        505
  93.7000        517
  93.8000        463
  93.9000        514
  94.0000        521
  94.1000        490
  94.2000        472
  94.3000        500
  94.4000        508
  94.5000        498
  94.6000        483
  94.7000        469
  94.8000        538
  94.9000        576
  95.0000        489
  95.1000        527
  95.2000        493
  95.3000        536
  95.4000        549
  95.5000        473
  95.6000        517
  95.7000        523
  95.8000        515
  95.9000        490
  96.0000        511
  96.1000        463
  96.2000        503
  96.3000        530
  96.4000        461
  96.5000        493
  96.6000        546
  96.7000        543
  96.8000        517
  96.9000        510
  97.0000        509
  97.1000        525
  97.2000        508
  97.3000        474
  97.4000        478
  97.5000        496
  97.6000        530
  97.7000        512
  97.8000        506
  97.9000        538
  98.0000        485
  98.1000        520
  98.2000        545
  98.3000        550
  98.4000        502
  98.5000        574
  98.6000        621
  98.7000        735
  98.8000        843
  98.9000       1105
  99.0000       1243
  99.1000       1366
  99.2000       1543
  99.3000       1459
  99.4000       1488
  99.5000       1442
  99.6000       1243
  99.7000       1210
  99.8000        968
  99.9000        810
 100.0000        686
 100.1000        574
 100.2000        600
 100.3000        520
 100.4000        512
 100.5000        482
 100.6000        480
 100.7000        500
 100.8000        468
 100.9000        539
 101.0000        496
 101.1000        532
 101.2000        481
 101.3000        486
 101.4000        467
 101.5000        503
 101.6000        503
 101.7000        543
 101.8000        498
 101.9000        504
 102.0000        496
 102.1000        510
 102.2000        466
 102.3000        493
 102.4000        512
 102.5000        515
 102.6000        546
 102.7000        513
 102.8000        519
 102.9000        535
 103.0000        498
 103.1000        519
 103.2000        502
 103.3000        492
 103.4000        464
 103.5000        492
 103.6000        514
 103.7000        511
 103.8000        478
 103.9000        516
 104.0000        512
 104.1000        552
 104.2000        518
 104.3000        491
 104.4000        503
 104.5000        533
 104.6000        516
 104.7000        493
 104.8000        527
 104.9000        530
 105.0000        507
 105.1000        529
 105.2000        492
 105.3000        527
 105.4000        503
 105.5000        503
 105.6000        475
 105.7000        487
 105.8000        527
 105.9000        512
 106.0000        502
 106.1000        494
 106.2000        463
 106.3000        493
 106.4000        519
 106.5000        467
 106.6000        518
 106.7000        509
 106.8000        526
 106.9000        536
 107.0000        497
 107.1000        529
 107.2000        470
 107.3000        464
 107.4000        494
 107.5000        472
 107.6000        532
 107.7000        531
 107.8000        516
 107.9000        481
 108.0000        500
 108.1000        519
 108.2000        478
 108.3000        485
 108.4000        534
 108.5000        502
 108.6000        472
 108.7000        517
 108.8000        534
 108.9000        541
 109.0000        524
 109.1000        514
 109.2000        542
 109.3000        499
 109.4000        484
 109.5000        500
 109.6000        495
 109.7000        517
 109.8000        509
 109.9000        487
 110.0000        490
 110.1000        501
 110.2000        534
 110.3000        508
 110.4000        557
 110.5000        564
 110.6000        537
 110.7000        539
 110.8000        580
 110.9000        538
 111.0000        602
 111.1000        553
 111.2000        583
 111.3000        522
 111.4000        563
 111.5000        521
 111.6000        530
 111.7000        506
 111.8000        532
 111.9000        565
 112.0000        535
 112.1000        547
 112.2000        544
 112.3000        459
 112.4000        490
 112.5000        479
 112.6000        496
 112.7000        511
 112.8000        488
 112.9000        497
 113.0000        482
 113.1000        499
 113.2000        479
 113.3000        495
 113.4000        526
 113.5000        455
 113.6000        492
 113.7000        482
 113.8000        500
 113.9000        532
 114.0000        509
 114.1000        507
 114.2000        549
 114.3000        538
 114.4000        493
 114.5000        471
 114.6000        526
 114.7000        508
 114.8000        474
 114.9000        516
 115.0000        504
 115.1000        495
 115.2000        522
 115.3000        530
 115.4000        482
 115.5000        481
 115.6000        496
 115.7000        494
 115.8000        505
 115.9000        497
 116.0000        528
 116.1000        481
 116.2000        514
 116.3000        502
 116.4000        551
 116.5000        484
 116.6000        449
 116.7000        519
 116.8000        528
 116.9000        475
 117.0000        554
 117.1000        540
 117.2000        502
 117.3000        483
 117.4000        484
 117.5000        520
 117.6000        508
 117.7000        494
 117.8000        489
 117.9000        516
 118.0000        528
 118.1000        520
 118.2000        508
 118.3000        508
 118.4000        483
 118.5000        482
 118.6000        473
 118.7000        523
 118.8000        503
 118.9000        536
 119.0000        535
 119.1000        545
 119.2000        488
 119.3000        462
 119.4000        528
 119.5000        533
 119.6000        483
 119.7000        488
 119.8000        509
 119.9000        482
 120.0000        489
 120.1000        470
 120.2000        499
 120.3000        474
 120.4000        477
 120.5000        512
 120.6000        556
 120.7000        537
 120.8000        467
 120.9000        487
 121.0000        497
 121.1000        531
 121.2000        529
 121.3000        501
 121.4000        540
 121.5000        497
 121.6000        522
 121.7000        509
 121.8000        526
 121.9000        517
 122.0000        506
 122.1000        494
 122.2000        509
 122.3000        504
 122.4000        553
 122.5000        558
 122.6000        529
 122.7000        491
 122.8000        562
 122.9000        542
 123.0000        572
 123.1000        650
 123.2000        619
 123.3000        653
 123.4000        598
 123.5000        598
 123.6000        584
 123.7000        568
 123.8000        564
 123.9000        544
 124.0000        528
 124.1000        539
 124.2000        527
 124.3000        494
 124.4000        476
 124.5000        514
 124.6000        470
 124.7000        473
 124.8000        490
 124.9000        524
 125.0000        498
 125.1000        521
 125.2000        513
 125.3000        481
 125.4000        510
 125.5000        517
 125.6000        487
 125.7000        474
 125.8000        486
 125.9000        525
 126.0000        541
 126.1000        494
 126.2000        488
 126.3000        493
 126.4000        515
 126.5000        533
 126.6000        482
 126.7000        524
 126.8000        497
 126.9000        473
 127.0000        507
 127.1000        486
 127.2000        505
 127.3000        471
 127.4000        500
 127.5000        516
 127.6000        549
 127.7000        480
 127.8000        483
 127.9000        507
 128.0000        485
 128.1000        500
 128.2000        501
 128.3000        527
 128.4000        482
 128.5000        533
 128.6000        454
 128.7000        523
 128.8000        483
 128.9000        519
 129.0000        456
 129.1000        466
 129.2000        568
 129.3000        522
 129.4000        502
 129.5000        530
 129.6000        527
 129.7000        538
 129.8000        526
 129.9000        555
 130.0000        545

; Data for range 2
_DRIVE = COUPLED
_STEPTIME = 0.2
_STEPSIZE = 0.1
_STEPMODE = C
_START = 40
_THETA = 20
_2THETA = 40
_KHI = 10.5
_PHI = 60
_X = 0
_Y = 25
_Z = 0
_DETECTOR = 1
; Detector type : Scintillation counter
_HV = 687
_GAIN = 80
_LLD = 0.69
_ULD = 1.866
_DETECTORSLIT = unkn
_AUX1 = 0
_AUX2 = 0
_AUX3 = 0
_TIMESTARTED = 225
_TEMP_RATE = -1
_TEMP_DELAY = -1
_KV = 35
_MA = 40
_RANGE_WL = 1.78897
_3DPLANE = 0
_V4_ADDITIONALDETECTOR = 0
_V4_D8_DIBNUM = 1
_V4_DETECTORNAME = "Detector 1"
_V4_TTLDETECTOR = None
_V4_DETECTORTYPE = 1
_V4_DETECTORFLAGS = 524545
_V4_DETECTORHV = 687
_V4_DETECTORGAIN = 80
_V4_DETECTORLLD1 = 0.69
_V4_DETECTORWW1 = 1.176
_V4_DETECTORLLD2 = 0
_V4_DETECTORWW2 = 0
_V4_DETECTORPS = 0
_V4_DETECTORDT = 0
_V4_DETECTORPILEUPTIME = 0
_V4_COUNTERS_MASK = 1
_V4_DRIVES_MASK = 0
_V4_ENCODERS_MASK = 0
_2THETACOUNTS = 1
; 2THETA  Cnt1_D1
  40.0000        527
  40.1000        522
  40.2000        515
  40.3000        556
  40.4000        504
  40.5000        562
  40.6000        553
  40.7000        518
  40.8000        532
  40.9000        511
  41.0000        506
  41.1000        533
  41.2000        545
  41.3000        472
  41.4000        526
  41.5000        518
  41.6000        582
  41.7000        479
  41.8000        525
  41.9000        493
  42.0000        521
  42.1000        514
  42.2000        478
  42.3000        554
  42.4000        551
  42.5000        503
  42.6000        514
  42.7000        525
  42.8000        499
  42.9000        504
  43.0000        499
  43.1000        494
  43.2000        495
  43.3000        531
  43.4000        548
  43.5000        541
  43.6000        524
  43.7000        550
  43.8000        493
  43.9000        551
  44.0000        543
  44.1000        517
  44.2000        484
  44.3000        517
  44.4000        486
  44.5000        495
  44.6000        490
  44.7000        514
  44.8000        515
  44.9000        550
  45.0000        499
  45.1000        499
  45.2000        542
  45.3000        524
  45.4000        531
  45.5000        517
  45.6000        532
  45.7000        491
  45.8000        524
  45.9000        513
  46.0000        505
  46.1000        519
  46.2000        520
  46.3000        525
  46.4000        559
  46.5000        511
  46.6000        493
  46.7000        531
  46.8000        510
  46.9000        517
  47.0000        560
  47.1000        534
  47.2000        508
  47.3000        546
  47.4000        503
  47.5000        511
  47.6000        516
  47.7000        512
  47.8000        509
  47.9000        534
  48.0000        563
  48.1000        476
  48.2000        537
  48.3000        527
  48.4000        537
  48.5000        516
  48.6000        506
  48.7000        490
  48.8000        493
  48.9000        534
  49.0000        564
  49.1000        487
  49.2000        558
  49.3000        483
  49.4000        496
  49.5000        506
  49.6000        505
  49.7000        556
  49.8000        528
  49.9000        507
  50.0000        536
  50.1000        519
  50.2000        504
  50.3000        531
  50.4000        588
  50.5000        569
  50.6000        596
  50.7000        611
  50.8000        592
  50.9000        598
  51.0000        604
  51.1000        591
  51.2000        580
  51.3000        602
  51.4000        556
  51.5000        564
  51.6000        768
  51.7000        981
  51.8000       1245
  51.9000       1418
  52.0000       1516
  52.1000       1700
  52.2000       1803
  52.3000       1634
  52.4000       1464
  52.5000       1273
  52.6000       1053
  52.7000        795
  52.8000        626
  52.9000        571
  53.0000        512
  53.1000        537
  53.2000        532
  53.3000        492
  53.4000        527
  53.5000        545
  53.6000        513
  53.7000        533
  53.8000        509
  53.9000        528
  54.0000        528
  54.1000        535
  54.2000        534
  54.3000        511
  54.4000        523
  54.5000        517
  54.6000        501
  54.7000        512
  54.8000        520
  54.9000        533
  55.0000        467
  55.1000        514
  55.2000        515
  55.3000        526
  55.4000        501
  55.5000        506
  55.6000        510
  55.7000        547
  55.8000        500
  55.9000        546
  56.0000        512
  56.1000        491
  56.2000        497
  56.3000        493
  56.4000        498
  56.5000        524
  56.6000        539
  56.7000        512
  56.8000        495
  56.9000        493
  57.0000        475
  57.1000        553
  57.2000        505
  57.3000        533
  57.4000        510
  57.5000        501
  57.6000        494
  57.7000        532
  57.8000        506
  57.9000        502
  58.0000        506
  58.1000        520
  58.2000        530
  58.3000        531
  58.4000        494
  58.5000        509
  58.6000        489
  58.7000        542
  58.8000        525
  58.9000        551
  59.0000        566
  59.1000        545
  59.2000        529
  59.3000        548
  59.4000        533
  59.5000        606
  59.6000        550
  59.7000        553
  59.8000        574
  59.9000        562
  60.0000        535
  60.1000        538
  60.2000        541
  60.3000        562
  60.4000        537
  60.5000        480
  60.6000        530
  60.7000        543
  60.8000        486
  60.9000        528
  61.0000        490
  61.1000        483
  61.2000        539
  61.3000        475
  61.4000        512
  61.5000        500
  61.6000        516
  61.7000        500
  61.8000        538
  61.9000        513
  62.0000        495
  62.1000        493
  62.2000        509
  62.3000        481
  62.4000        485
  62.5000        509
  62.6000        496
  62.7000        530
  62.8000        494
  62.9000        509
  63.0000        456
  63.1000        497
  63.2000        550
  63.3000        493
  63.4000        545
  63.5000        474
  63.6000        526
  63.7000        542
  63.8000        511
  63.9000        489
  64.0000        530
  64.1000        494
  64.2000        509
  64.3000        491
  64.4000        503
  64.5000        492
  64.6000        534
  64.7000        509
  64.8000        483
  64.9000        472
  65.0000        510
  65.1000        473
  65.2000        501
  65.3000        521
  65.4000        486
  65.5000        513
  65.6000        470
  65.7000        493
  65.8000        462
  65.9000        474
  66.0000        488
  66.1000        516
  66.2000        521
  66.3000        558
  66.4000        516
  66.5000        527
  66.6000        512
  66.7000        499
  66.8000        505
  66.9000        515
  67.0000        467
  67.1000        526
  67.2000        476
  67.3000        536
  67.4000        523
  67.5000        518
  67.6000        495
  67.7000        510
  67.8000        457
  67.9000        535
  68.0000        468
  68.1000        516
  68.2000        491
  68.3000        498
  68.4000        495
  68.5000        499
  68.6000        479
  68.7000        510
  68.8000        544
  68.9000        483
  69.0000        550
  69.1000        520
  69.2000        481
  69.3000        484
  69.4000        543
  69.5000        549
  69.6000        502
  69.7000        460
  69.8000        525
  69.9000        534
  70.0000        550
  70.1000        504
  70.2000        518
  70.3000        498
  70.4000        507
  70.5000        534
  70.6000        486
  70.7000        522
  70.8000        562
  70.9000        503
  71.0000        531
  71.1000        501
  71.2000        513
  71.3000        531
  71.4000        507
  71.5000        481
  71.6000        511
  71.7000        528
  71.8000        498
  71.9000        472
  72.0000        524
  72.1000        484
  72.2000        502
  72.3000        501
  72.4000        514
  72.5000        531
  72.6000        481
  72.7000        534
  72.8000        503
  72.9000        490
  73.0000        511
  73.1000        522
  73.2000        503
  73.3000        502
  73.4000        532
  73.5000        505
  73.6000        498
  73.7000        497
  73.8000        531
  73.9000        490
  74.0000        474
  74.1000        538
  74.2000        507
  74.3000        496
  74.4000        514
  74.5000        543
  74.6000        483
  74.7000        503
  74.8000        509
  74.9000        486
  75.0000        519
  75.1000        528
  75.2000        471
  75.3000        514
  75.4000        498
  75.5000        485
  75.6000        510
  75.7000        510
  75.8000        473
  75.9000        498
  76.0000        556
  76.1000        525
  76.2000        569
  76.3000        598
  76.4000        687
  76.5000        720
  76.6000        754
  76.7000        812
  76.8000        896
  76.9000        994
  77.0000        934
  77.1000        958
  77.2000        877
  77.3000        791
  77.4000        697
  77.5000        646
  77.6000        580
  77.7000        550
  77.8000        501
  77.9000        518
  78.0000        509
  78.1000        496
  78.2000        520
  78.3000        496
  78.4000        505
  78.5000        516
  78.6000        513
  78.7000        491
  78.8000        474
  78.9000        528
  79.0000        489
  79.1000        485
  79.2000        509
  79.3000        495
  79.4000        542
  79.5000        491
  79.6000        538
  79.7000        506
  79.8000        485
  79.9000        511
  80.0000        512
  80.1000        489
  80.2000        494
  80.3000        485
  80.4000        474
  80.5000        505
  80.6000        503
  80.7000        523
  80.8000        504
  80.9000        495
  81.0000        495
  81.1000        553
  81.2000        479
  81.3000        507
  81.4000        491
  81.5000        512
  81.6000        511
  81.7000        531
  81.8000        508
  81.9000        506
  82.0000        552
  82.1000        466
  82.2000        522
  82.3000        469
  82.4000        516
  82.5000        492
  82.6000        490
  82.7000        519
  82.8000        501
  82.9000        513
  83.0000        556
  83.1000        522
  83.2000        531
  83.3000        492
  83.4000        475
  83.5000        510
  83.6000        496
  83.7000        497
  83.8000        476
  83.9000        485
  84.0000        490
  84.1000        468
  84.2000        523
  84.3000        487
  84.4000        501
  84.5000        509
  84.6000        509
  84.7000        513
  84.8000        462
  84.9000        445
  85.0000        462
  85.1000        550
  85.2000        506
  85.3000        545
  85.4000        444
  85.5000        508
  85.6000        552
  85.7000        461
  85.8000        471
  85.9000        521
  86.0000        535
  86.1000        505
  86.2000        506
  86.3000        488
  86.4000        540
  86.5000        498
  86.6000        535
  86.7000        531
  86.8000        491
  86.9000        493
  87.0000        482
  87.1000        501
  87.2000        454
  87.3000        529
  87.4000        503
  87.5000        504
  87.6000        508
  87.7000        522
  87.8000        493
  87.9000        441
  88.0000        506
  88.1000        482
  88.2000        514
  88.3000        512
  88.4000        556
  88.5000        528
  88.6000        491
  88.7000        539
  88.8000        577
  88.9000        588
  89.0000        588
  89.1000        590
  89.2000        612
  89.3000        613
  89.4000        630
  89.5000        624
  89.6000        547
  89.7000        593
  89.8000        517
  89.9000        547
  90.0000        501
  90.1000        504
  90.2000        506
  90.3000        496
  90.4000        501
  90.5000        486
  90.6000        522
  90.7000        505
  90.8000        521
  90.9000        492
  91.0000        495
  91.1000        503
  91.2000        503
  91.3000        533
  91.4000        480
  91.5000        497
  91.6000        540
  91.7000        487
  91.8000        486
  91.9000        512
  92.0000        513
  92.1000        515
  92.2000        499
  92.3000        508
  92.4000        481
  92.5000        508
  92.6000        503
  92.7000        546
  92.8000        516
  92.9000        505
  93.0000        481
  93.1000        520
  93.2000        505
  93.3000        482
  93.4000        477
  93.5000        514
  93.6000        500
  93.7000        460
  93.8000        520
  93.9000        476
  94.0000        510
  94.1000        504
  94.2000        515
  94.3000        534
  94.4000        520
  94.5000        476
  94.6000        505
  94.7000        501
  94.8000        527
  94.9000        481
  95.0000        519
  95.1000        524
  95.2000        509
  95.3000        529
  95.4000        482
  95.5000        480
  95.6000        501
  95.7000        506
  95.8000        474
  95.9000        544
  96.0000        525
  96.1000        477
  96.2000        528
  96.3000        500
  96.4000        493
  96.5000        523
  96.6000        505
  96.7000        513
  96.8000        547
  96.9000        536
  97.0000        494
  97.1000        485
  97.2000        528
  97.3000        515
  97.4000        472
  97.5000        526
  97.6000        501
  97.7000        473
  97.8000        498
  97.9000        504
  98.0000        527
  98.1000        488
  98.2000        499
  98.3000        502
  98.4000        513
  98.5000        509
  98.6000        570
  98.7000        659
  98.8000        806
  98.9000        923
  99.0000       1042
  99.1000       1180
  99.2000       1197
  99.3000       1211
  99.4000       1267
  99.5000       1155
  99.6000       1069
  99.7000        967
  99.8000        838
  99.9000        785
 100.0000        603
 100.1000        580
 100.2000        565
 100.3000        458
 100.4000        527
 100.5000        507
 100.6000        537
 100.7000        521
 100.8000        551
 100.9000        506
 101.0000        465
 101.1000        474
 101.2000        534
 101.3000        507
 101.4000        493
 101.5000        531
 101.6000        482
 101.7000        498
 101.8000        510
 101.9000        580
 102.0000        557
 102.1000        520
 102.2000        523
 102.3000        472
 102.4000        505
 102.5000        519
 102.6000        475
 102.7000        533
 102.8000        506
 102.9000        519
 103.0000        510
 103.1000        506
 103.2000        501
 103.3000        524
 103.4000        507
 103.5000        495
 103.6000        510
 103.7000        544
 103.8000        512
 103.9000        511
 104.0000        501
 104.1000        511
 104.2000        466
 104.3000        518
 104.4000        526
 104.5000        481
 104.6000        477
 104.7000        517
 104.8000        526
 104.9000        527
 105.0000        520
 105.1000        419
 105.2000        534
 105.3000        527
 105.4000        475
 105.5000        564
 105.6000        490
 105.7000        477
 105.8000        534
 105.9000        512
 106.0000        491
 106.1000        495
 106.2000        497
 106.3000        522
 106.4000        522
 106.5000        549
 106.6000        483
 106.7000        524
 106.8000        507
 106.9000        512
 107.0000        493
 107.1000        495
 107.2000        485
 107.3000        548
 107.4000        484
 107.5000        520
 107.6000        513
 107.7000        511
 107.8000        515
 107.9000        521
 108.0000        514
 108.1000        542
 108.2000        515
 108.3000        499
 108.4000        505
 108.5000        520
 108.6000        508
 108.7000        512
 108.8000        518
 108.9000        542
 109.0000        480
 109.1000        494
 109.2000        495
 109.3000        482
 109.4000        503
 109.5000        496
 109.6000        530
 109.7000        505
 109.8000        532
 109.9000        514
 110.0000        517
 110.1000        530
 110.2000        548
 110.3000        520
 110.4000        545
 110.5000        566
 110.6000        520
 110.7000        535
 110.8000        621
 110.9000        555
 111.0000        606
 111.1000        559
 111.2000        606
 111.3000        581
 111.4000        570
 111.5000        564
 111.6000        533
 111.7000        498
 111.8000        519
 111.9000        498
 112.0000        481
 112.1000        505
 112.2000        509
 112.3000        510
 112.4000        504
 112.5000        525
 112.6000        490
 112.7000        480
 112.8000        514
 112.9000        533
 113.0000        495
 113.1000        465
 113.2000        560
 113.3000        500
 113.4000        518
 113.5000        505
 113.6000        493
 113.7000        485
 113.8000        498
 113.9000        462
 114.0000        484
 114.1000        494
 114.2000        547
 114.3000        530
 114.4000        502
 114.5000        493
 114.6000        527
 114.7000        540
 114.8000        512
 114.9000        493
 115.0000        491
 115.1000        517
 115.2000        486
 115.3000        479
 115.4000        495
 115.5000        505
 115.6000        459
 115.7000        475
 115.8000        478
 115.9000        522
 116.0000        478
 116.1000        485
 116.2000        553
 116.3000        530
 116.4000        527
 116.5000        547
 116.6000        483
 116.7000        508
 116.8000        466
 116.9000        531
 117.0000        527
 117.1000        528
 117.2000        546
 117.3000        502
 117.4000        509
 117.5000        485
 117.6000        550
 117.7000        556
 117.8000        525
 117.9000        487
 118.0000        510
 118.1000        517
 118.2000        508
 118.3000        500
 118.4000        491
 118.5000        512
 118.6000        489
 118.7000        508
 118.8000        521
 118.9000        500
 119.0000        515
 119.1000        505
 119.2000        545
 119.3000        521
 119.4000        504
 119.5000        508
 119.6000        490
 119.7000        524
 119.8000        497
 119.9000        466
 120.0000        480
 120.1000        532
 120.2000        550
 120.3000        459
 120.4000        531
 120.5000        494
 120.6000        500
 120.7000        519
 120.8000        479
 120.9000        480
 121.0000        482
 121.1000        509
 121.2000        516
 121.3000        520
 121.4000        459
 121.5000        537
 121.6000        512
 121.7000        505
 121.8000        492
 121.9000        541
 122.0000        495
 122.1000        510
 122.2000        543
 122.3000        563
 122.4000        546
 122.5000        531
 122.6000        532
 122.7000        516
 122.8000        560
 122.9000        628
 123.0000        539
 123.1000        575
 123.2000        583
 123.3000        564
 123.4000        553
 123.5000        634
 123.6000        596
 123.7000        578
 123.8000        542
 123.9000        573
 124.0000        560
 124.1000        539
 124.2000        495
 124.3000        540
 124.4000        467
 124.5000        511
 124.6000        506
 124.7000        493
 124.8000        493
 124.9000        508
 125.0000        490
 125.1000        517
 125.2000        511
 125.3000        473
 125.4000        567
 125.5000        518
 125.6000        537
 125.7000        499
 125.8000        520
 125.9000        466
 126.0000        519
 126.1000        503
 126.2000        499
 126.3000        467
 126.4000        499
 126.5000        479
 126.6000        484
 126.7000        495
 126.8000        531
 126.9000        495
 127.0000        518
 127.1000        519
 127.2000        514
 127.3000        501
 127.4000        520
 127.5000        485
 127.6000        529
[...]
 129.1000        370
 129.2000        427
 129.3000        436
 129.4000        396
 129.5000        450
 129.6000        419
 129.7000        431
 129.8000        398
 129.9000        449
 130.0000        441

; Data for range 53
_DRIVE = COUPLED
_STEPTIME = 0.2
_STEPSIZE = 0.1
_STEPMODE = C
_START = 40
_THETA = 20
_2THETA = 40
_KHI = 80
_PHI = 0
_X = 0
_Y = 25
_Z = 0
_DETECTOR = 1
; Detector type : Scintillation counter
_HV = 687
_GAIN = 80
_LLD = 0.69
_ULD = 1.866
_DETECTORSLIT = unkn
_AUX1 = 0
_AUX2 = 0
_AUX3 = 0
_TIMESTARTED = 1.03e+004
_TEMP_RATE = -1
_TEMP_DELAY = -1
_KV = 35
_MA = 40
_RANGE_WL = 1.78897
_3DPLANE = 0
_V4_ADDITIONALDETECTOR = 0
_V4_D8_DIBNUM = 1
_V4_DETECTORNAME = "Detector 1"
_V4_TTLDETECTOR = None
_V4_DETECTORTYPE = 1
_V4_DETECTORFLAGS = 524545
_V4_DETECTORHV = 687
_V4_DETECTORGAIN = 80
_V4_DETECTORLLD1 = 0.69
_V4_DETECTORWW1 = 1.176
_V4_DETECTORLLD2 = 0
_V4_DETECTORWW2 = 0
_V4_DETECTORPS = 0
_V4_DETECTORDT = 0
_V4_DETECTORPILEUPTIME = 0
_V4_COUNTERS_MASK = 1
_V4_DRIVES_MASK = 0
_V4_ENCODERS_MASK = 0
_2THETACOUNTS = 1
; 2THETA  Cnt1_D1
  40.0000        165
  40.1000        187
  40.2000        196
  40.3000        189
  40.4000        213
  40.5000        199
  40.6000        176
  40.7000        190
  40.8000        207
  40.9000        195
  41.0000        172
  41.1000        198
  41.2000        208
  41.3000        190
  41.4000        201
  41.5000        171
  41.6000        190
  41.7000        158
  41.8000        202
  41.9000        179
  42.0000        197
  42.1000        206
  42.2000        195
  42.3000        178
  42.4000        226
  42.5000        217
  42.6000        236
  42.7000        281
  42.8000        257
  42.9000        227
  43.0000        271
  43.1000        250
  43.2000        254
  43.3000        242
  43.4000        260
  43.5000        273
  43.6000        260
  43.7000        271
  43.8000        259
  43.9000        223
  44.0000        234
  44.1000        198
  44.2000        198
  44.3000        208
  44.4000        185
  44.5000        187
  44.6000        222
  44.7000        190
  44.8000        224
  44.9000        246
  45.0000        202
  45.1000        200
  45.2000        197
  45.3000        213
  45.4000        193
  45.5000        192
  45.6000        180
  45.7000        203
  45.8000        227
  45.9000        175
  46.0000        213
  46.1000        216
  46.2000        179
  46.3000        225
  46.4000        202
  46.5000        209
  46.6000        197
  46.7000        211
  46.8000        215
  46.9000        199
  47.0000        205
  47.1000        230
  47.2000        233
  47.3000        204
  47.4000        237
  47.5000        217
  47.6000        225
  47.7000        200
  47.8000        218
  47.9000        223
  48.0000        203
  48.1000        199
  48.2000        210
  48.3000        210
  48.4000        199
  48.5000        202
  48.6000        225
  48.7000        208
  48.8000        208
  48.9000        204
  49.0000        195
  49.1000        204
  49.2000        222
  49.3000        204
  49.4000        239
  49.5000        215
  49.6000        223
  49.7000        256
  49.8000        239
  49.9000        245
  50.0000        288
  50.1000        309
  50.2000        287
  50.3000        332
  50.4000        302
  50.5000        341
  50.6000        346
  50.7000        377
  50.8000        367
  50.9000        373
  51.0000        389
  51.1000        408
  51.2000        438
  51.3000        467
  51.4000        508
  51.5000        554
  51.6000        639
  51.7000        681
  51.8000        725
  51.9000        756
  52.0000        799
  52.1000        819
  52.2000        861
  52.3000        911
  52.4000        908
  52.5000        761
  52.6000        779
  52.7000        747
  52.8000        726
  52.9000        649
  53.0000        623
  53.1000        522
  53.2000        533
  53.3000        423
  53.4000        358
  53.5000        283
  53.6000        276
  53.7000        244
  53.8000        241
  53.9000        249
  54.0000        230
  54.1000        235
  54.2000        231
  54.3000        267
  54.4000        249
  54.5000        245
  54.6000        201
  54.7000        240
  54.8000        237
  54.9000        255
  55.0000        245
  55.1000        236
  55.2000        246
  55.3000        232
  55.4000        249
  55.5000        241
  55.6000        234
  55.7000        212
  55.8000        266
  55.9000        228
  56.0000        237
  56.1000        236
  56.2000        254
  56.3000        236
  56.4000        245
  56.5000        230
  56.6000        247
  56.7000        220
  56.8000        238
  56.9000        224
  57.0000        259
  57.1000        239
  57.2000        253
  57.3000        250
  57.4000        263
  57.5000        243
  57.6000        224
  57.7000        224
  57.8000        242
  57.9000        234
  58.0000        242
  58.1000        258
  58.2000        252
  58.3000        245
  58.4000        249
  58.5000        264
  58.6000        256
  58.7000        242
  58.8000        270
  58.9000        263
  59.0000        279
  59.1000        274
  59.2000        290
  59.3000        283
  59.4000        266
  59.5000        328
  59.6000        329
  59.7000        277
  59.8000        246
  59.9000        301
  60.0000        283
  60.1000        250
  60.2000        272
  60.3000        297
  60.4000        260
  60.5000        249
  60.6000        242
  60.7000        253
  60.8000        269
  60.9000        271
  61.0000        251
  61.1000        274
  61.2000        261
  61.3000        250
  61.4000        272
  61.5000        221
  61.6000        246
  61.7000        257
  61.8000        258
  61.9000        257
  62.0000        251
  62.1000        258
  62.2000        261
  62.3000        243
  62.4000        240
  62.5000        240
  62.6000        234
  62.7000        255
  62.8000        254
  62.9000        245
  63.0000        266
  63.1000        246
  63.2000        248
  63.3000        253
  63.4000        294
  63.5000        249
  63.6000        265
  63.7000        290
  63.8000        250
  63.9000        242
  64.0000        238
  64.1000        238
  64.2000        280
  64.3000        262
  64.4000        257
  64.5000        235
  64.6000        242
  64.7000        269
  64.8000        266
  64.9000        278
  65.0000        265
  65.1000        252
  65.2000        301
  65.3000        259
  65.4000        287
  65.5000        271
  65.6000        244
  65.7000        258
  65.8000        261
  65.9000        241
  66.0000        269
  66.1000        259
  66.2000        263
  66.3000        283
  66.4000        284
  66.5000        252
  66.6000        247
  66.7000        247
  66.8000        262
  66.9000        286
  67.0000        256
  67.1000        293
  67.2000        280
  67.3000        231
  67.4000        285
  67.5000        275
  67.6000        279
  67.7000        272
  67.8000        250
  67.9000        258
  68.0000        281
  68.1000        287
  68.2000        270
  68.3000        288
  68.4000        237
  68.5000        251
  68.6000        267
  68.7000        253
  68.8000        241
  68.9000        248
  69.0000        263
  69.1000        293
  69.2000        258
  69.3000        257
  69.4000        258
  69.5000        305
  69.6000        279
  69.7000        275
  69.8000        259
  69.9000        268
  70.0000        247
  70.1000        277
  70.2000        302
  70.3000        283
  70.4000        247
  70.5000        265
  70.6000        303
  70.7000        272
  70.8000        240
  70.9000        284
  71.0000        264
  71.1000        274
  71.2000        259
  71.3000        286
  71.4000        280
  71.5000        284
  71.6000        263
  71.7000        290
  71.8000        278
  71.9000        291
  72.0000        296
  72.1000        261
  72.2000        296
  72.3000        277
  72.4000        246
  72.5000        285
  72.6000        249
  72.7000        310
  72.8000        291
  72.9000        285
  73.0000        286
  73.1000        272
  73.2000        297
  73.3000        291
  73.4000        275
  73.5000        297
  73.6000        265
  73.7000        276
  73.8000        318
  73.9000        295
  74.0000        274
  74.1000        297
  74.2000        272
  74.3000        292
  74.4000        273
  74.5000        306
  74.6000        290
  74.7000        255
  74.8000        291
  74.9000        293
  75.0000        289
  75.1000        304
  75.2000        325
  75.3000        293
  75.4000        301
  75.5000        266
  75.6000        271
  75.7000        296
  75.8000        297
  75.9000        312
  76.0000        342
  76.1000        290
  76.2000        296
  76.3000        324
  76.4000        299
  76.5000        348
  76.6000        353
  76.7000        377
  76.8000        362
  76.9000        377
  77.0000        376
  77.1000        356
  77.2000        359
  77.3000        361
  77.4000        357
  77.5000        366
  77.6000        336
  77.7000        349
  77.8000        344
  77.9000        306
  78.0000        344
  78.1000        347
  78.2000        293
  78.3000        308
  78.4000        303
  78.5000        295
  78.6000        294
  78.7000        308
  78.8000        314
  78.9000        322
  79.0000        314
  79.1000        306
  79.2000        297
  79.3000        293
  79.4000        295
  79.5000        285
  79.6000        257
  79.7000        314
  79.8000        303
  79.9000        312
  80.0000        322
  80.1000        279
  80.2000        327
  80.3000        323
  80.4000        281
  80.5000        316
  80.6000        312
  80.7000        294
  80.8000        296
  80.9000        305
  81.0000        300
  81.1000        325
  81.2000        336
  81.3000        290
  81.4000        305
  81.5000        301
  81.6000        355
  81.7000        307
  81.8000        310
  81.9000        280
  82.0000        341
  82.1000        311
  82.2000        299
  82.3000        288
  82.4000        301
  82.5000        306
  82.6000        317
  82.7000        306
  82.8000        304
  82.9000        350
  83.0000        293
  83.1000        324
  83.2000        278
  83.3000        316
  83.4000        347
  83.5000        321
  83.6000        332
  83.7000        304
  83.8000        321
  83.9000        318
  84.0000        338
  84.1000        333
  84.2000        323
  84.3000        326
  84.4000        323
  84.5000        333
  84.6000        320
  84.7000        325
  84.8000        336
  84.9000        289
  85.0000        320
  85.1000        339
  85.2000        316
  85.3000        313
  85.4000        323
  85.5000        320
  85.6000        334
  85.7000        309
  85.8000        311
  85.9000        301
  86.0000        349
  86.1000        294
  86.2000        307
  86.3000        359
  86.4000        313
  86.5000        305
  86.6000        323
  86.7000        326
  86.8000        351
  86.9000        320
  87.0000        291
  87.1000        354
  87.2000        350
  87.3000        331
  87.4000        300
  87.5000        332
  87.6000        320
  87.7000        316
  87.8000        343
  87.9000        355
  88.0000        352
  88.1000        371
  88.2000        318
  88.3000        331
  88.4000        341
  88.5000        315
  88.6000        342
  88.7000        327
  88.8000        341
  88.9000        311
  89.0000        340
  89.1000        332
  89.2000        327
  89.3000        338
  89.4000        302
  89.5000        348
  89.6000        352
  89.7000        322
  89.8000        332
  89.9000        341
  90.0000        372
  90.1000        320
  90.2000        372
  90.3000        325
  90.4000        338
  90.5000        330
  90.6000        298
  90.7000        367
  90.8000        323
  90.9000        364
  91.0000        317
  91.1000        328
  91.2000        347
  91.3000        354
  91.4000        342
  91.5000        336
  91.6000        372
  91.7000        332
  91.8000        344
  91.9000        324
  92.0000        371
  92.1000        315
  92.2000        360
  92.3000        365
  92.4000        301
  92.5000        354
  92.6000        348
  92.7000        308
  92.8000        338
  92.9000        343
  93.0000        312
  93.1000        324
  93.2000        341
  93.3000        353
  93.4000        313
  93.5000        371
  93.6000        342
  93.7000        296
  93.8000        349
  93.9000        320
  94.0000        351
  94.1000        327
  94.2000        371
  94.3000        351
  94.4000        334
  94.5000        351
  94.6000        310
  94.7000        327
  94.8000        329
  94.9000        362
  95.0000        316
  95.1000        354
  95.2000        352
  95.3000        363
  95.4000        365
  95.5000        342
  95.6000        357
  95.7000        329
  95.8000        362
  95.9000        366
  96.0000        379
  96.1000        337
  96.2000        408
  96.3000        347
  96.4000        348
  96.5000        381
  96.6000        314
  96.7000        361
  96.8000        360
  96.9000        346
  97.0000        366
  97.1000        357
  97.2000        358
  97.3000        351
  97.4000        381
  97.5000        342
  97.6000        400
  97.7000        359
  97.8000        382
  97.9000        398
  98.0000        405
  98.1000        389
  98.2000        401
  98.3000        386
  98.4000        411
  98.5000        406
  98.6000        457
  98.7000        469
  98.8000        522
  98.9000        477
  99.0000        507
  99.1000        491
  99.2000        539
  99.3000        544
  99.4000        549
  99.5000        497
  99.6000        493
  99.7000        496
  99.8000        472
  99.9000        470
 100.0000        490
 100.1000        485
 100.2000        482
 100.3000        456
 100.4000        435
 100.5000        387
 100.6000        403
 100.7000        370
 100.8000        371
 100.9000        366
 101.0000        386
 101.1000        420
 101.2000        377
 101.3000        394
 101.4000        373
 101.5000        381
 101.6000        369
 101.7000        364
 101.8000        369
 101.9000        367
 102.0000        446
 102.1000        386
 102.2000        418
 102.3000        388
 102.4000        366
 102.5000        377
 102.6000        412
 102.7000        388
 102.8000        396
 102.9000        411
 103.0000        392
 103.1000        369
 103.2000        365
 103.3000        391
 103.4000        392
 103.5000        399
 103.6000        401
 103.7000        409
 103.8000        368
 103.9000        407
 104.0000        421
 104.1000        358
 104.2000        415
 104.3000        398
 104.4000        390
 104.5000        385
 104.6000        373
 104.7000        385
 104.8000        392
 104.9000        399
 105.0000        369
 105.1000        380
 105.2000        392
 105.3000        432
 105.4000        365
 105.5000        390
 105.6000        380
 105.7000        417
 105.8000        432
 105.9000        375
 106.0000        372
 106.1000        414
 106.2000        384
 106.3000        379
 106.4000        396
 106.5000        390
 106.6000        369
 106.7000        396
 106.8000        441
 106.9000        376
 107.0000        385
 107.1000        365
 107.2000        393
 107.3000        402
 107.4000        408
 107.5000        377
 107.6000        381
 107.7000        419
 107.8000        391
 107.9000        444
 108.0000        427
 108.1000        421
 108.2000        422
 108.3000        433
 108.4000        380
 108.5000        439
 108.6000        412
 108.7000        401
 108.8000        423
 108.9000        443
 109.0000        418
 109.1000        398
 109.2000        423
 109.3000        410
 109.4000        419
 109.5000        413
 109.6000        419
 109.7000        398
 109.8000        401
 109.9000        433
 110.0000        478
 110.1000        438
 110.2000        456
 110.3000        454
 110.4000        457
 110.5000        461
 110.6000        432
 110.7000        433
 110.8000        451
 110.9000        416
 111.0000        421
 111.1000        439
 111.2000        397
 111.3000        452
 111.4000        427
 111.5000        476
 111.6000        415
 111.7000        397
 111.8000        424
 111.9000        453
 112.0000        436
 112.1000        414
 112.2000        419
 112.3000        417
 112.4000        404
 112.5000        451
 112.6000        446
 112.7000        365
 112.8000        430
 112.9000        437
 113.0000        426
 113.1000        426
 113.2000        419
 113.3000        407
 113.4000        395
 113.5000        418
 113.6000        441
 113.7000        454
 113.8000        396
 113.9000        414
 114.0000        393
 114.1000        396
 114.2000        403
 114.3000        402
 114.4000        413
 114.5000        418
 114.6000        420
 114.7000        399
 114.8000        455
 114.9000        426
 115.0000        450
 115.1000        422
 115.2000        401
 115.3000        410
 115.4000        421
 115.5000        417
 115.6000        438
 115.7000        414
 115.8000        419
 115.9000        443
 116.0000        414
 116.1000        490
 116.2000        437
 116.3000        428
 116.4000        414
 116.5000        427
 116.6000        423
 116.7000        417
 116.8000        436
 116.9000        423
 117.0000        445
 117.1000        434
 117.2000        428
 117.3000        401
 117.4000        448
 117.5000        421
 117.6000        447
 117.7000        439
 117.8000        424
 117.9000        455
 118.0000        435
 118.1000        449
 118.2000        426
 118.3000        440
 118.4000        467
 118.5000        433
 118.6000        440
 118.7000        436
 118.8000        472
 118.9000        467
 119.0000        451
 119.1000        455
 119.2000        467
 119.3000        468
 119.4000        439
 119.5000        416
 119.6000        466
 119.7000        423
 119.8000        439
 119.9000        440
 120.0000        426
 120.1000        464
 120.2000        458
 120.3000        434
 120.4000        447
 120.5000        448
 120.6000        437
 120.7000        426
 120.8000        476
 120.9000        422
 121.0000        480
 121.1000        447
 121.2000        445
 121.3000        422
 121.4000        476
 121.5000        470
 121.6000        428
 121.7000        445
 121.8000        456
 121.9000        445
 122.0000        458
 122.1000        470
 122.2000        473
 122.3000        524
 122.4000        481
 122.5000        520
 122.6000        500
 122.7000        524
 122.8000        526
 122.9000        541
 123.0000        572
 123.1000        581
 123.2000        580
 123.3000        580
 123.4000        563
 123.5000        606
 123.6000        632
 123.7000        583
 123.8000        604
 123.9000        595
 124.0000        579
 124.1000        561
 124.2000        513
 124.3000        512
 124.4000        525
 124.5000        442
 124.6000        420
 124.7000        447
 124.8000        447
 124.9000        429
 125.0000        420
 125.1000        433
 125.2000        418
 125.3000        444
 125.4000        446
 125.5000        432
 125.6000        434
 125.7000        454
 125.8000        458
 125.9000        457
 126.0000        450
 126.1000        448
 126.2000        440
 126.3000        445
 126.4000        460
 126.5000        451
 126.6000        485
 126.7000        419
 126.8000        418
 126.9000        439
 127.0000        417
 127.1000        423
 127.2000        432
 127.3000        447
 127.4000        420
 127.5000        430
 127.6000        433
 127.7000        461
 127.8000        435
 127.9000        429
 128.0000        436
 128.1000        450
 128.2000        446
 128.3000        448
 128.4000        413
 128.5000        447
 128.6000        453
 128.7000        431
 128.8000        463
 128.9000        435
 129.0000        403
 129.1000        448
 129.2000        459
 129.3000        425
 129.4000        460
 129.5000        438
 129.6000        444
 129.7000        467
 129.8000        448
 129.9000        426
 130.0000        429