File: exp_dat/old/exp_2013_11_11/01pct_181G.uxd
; (content of file C:\DIFFDAT1\GIFT\MDL\Seawoong Lee\20131104_MV8\equal_area_maxkhi080_n8_2th40_130_x-25y-25_180g_2.raw)
_FILEVERSION = 3
_SAMPLE =
_+SAMPLE =
_SITE = Korea
_USER = Admin
_GONIOMETER_CODE = 20
; Goniometer : D8 theta/2theta, stage : Unknown
_SAMPLE_CHANGER_CODE = 0
_ATTACHMENTS_CODE = 0
_GONIOMETER_RADIUS = 300
_FIXED_DIVSLIT = 1
_FIXED_SAMPLESLIT = 0
_SOLLER_SLITS = 2
_FIXED_DETSLIT = 0.1
_MONOCHROMATOR = 0
; Incident beam monochromator : None
_SOLLER_SLITS_2 = 2
_THIN_FILM = N
_BETA_FILTER = Y
_FIXED_ANTISLIT = 0.6
_ANALYZER_CODE = 0
; Received beam analyzer : None
_DATEMEASURED = "09-Nov-2013 06:21:40"
_WL_UNIT = A
_WL1 = 1.78897
_WL2 = 1.79285
_WL3 = 1.62079
_WLRATIO = 0.5
_ANODE = Co
_V4_INF_CREATOR = XRDWizard
_V4_INF_CREATOR_VERSION = V2.9.0.22
_V4_INF_WIZARD_VERSION = V2.9.0.22
_V4_INF_WIZARD_ADDINS = V2.9.0.22
_V4_INF_WIZARD_DOCTYPE = XRD
_V4_INF_OSUSER = Postech
_V4_INF_USER = Admin
_V4_INF_SITE = Korea

; Data for range 1
_DRIVE = COUPLED
_STEPTIME = 0.2
_STEPSIZE = 0.1
_STEPMODE = C
_START = 40
_THETA = 20
_2THETA = 40
_KHI = 0
_PHI = 0
_X = -25
_Y = -25
_Z = 0
_DETECTOR = 1
; Detector type : Scintillation counter
_HV = 687
_GAIN = 80
_LLD = 0.69
_ULD = 1.866
_DETECTORSLIT = unkn
_AUX1 = 0
_AUX2 = 0
_AUX3 = 0
_TIMESTARTED = 28
_TEMP_RATE = -1
_TEMP_DELAY = -1
_KV = 35
_MA = 40
_RANGE_WL = 1.78897
_3DPLANE = 0
_V4_ADDITIONALDETECTOR = 0
_V4_D8_DIBNUM = 1
_V4_DETECTORNAME = "Detector 1"
_V4_TTLDETECTOR = None
_V4_DETECTORTYPE = 1
_V4_DETECTORFLAGS = 524545
_V4_DETECTORHV = 687
_V4_DETECTORGAIN = 80
_V4_DETECTORLLD1 = 0.69
_V4_DETECTORWW1 = 1.176
_V4_DETECTORLLD2 = 0
_V4_DETECTORWW2 = 0
_V4_DETECTORPS = 0
_V4_DETECTORDT = 0
_V4_DETECTORPILEUPTIME = 0
_V4_COUNTERS_MASK = 1
_V4_DRIVES_MASK = 0
_V4_ENCODERS_MASK = 0
_2THETACOUNTS = 1
; 2THETA  Cnt1_D1
  40.0000        524
  40.1000        523
  40.2000        501
  40.3000        566
  40.4000        542
  40.5000        514
  40.6000        543
  40.7000        511
  40.8000        505
  40.9000        533
  41.0000        520
  41.1000        537
  41.2000        492
  41.3000        538
  41.4000        531
  41.5000        534
  41.6000        488
  41.7000        509
  41.8000        504
  41.9000        497
  42.0000        502
  42.1000        524
  42.2000        520
  42.3000        524
  42.4000        523
  42.5000        519
  42.6000        601
  42.7000        516
  42.8000        486
  42.9000        539
  43.0000        525
  43.1000        556
  43.2000        525
  43.3000        547
  43.4000        503
  43.5000        543
  43.6000        500
  43.7000        543
  43.8000        531
  43.9000        518
  44.0000        517
  44.1000        526
  44.2000        523
  44.3000        505
  44.4000        545
  44.5000        523
  44.6000        527
  44.7000        528
  44.8000        508
  44.9000        528
  45.0000        550
  45.1000        562
  45.2000        505
  45.3000        535
  45.4000        503
  45.5000        530
  45.6000        515
  45.7000        547
  45.8000        524
  45.9000        511
  46.0000        538
  46.1000        493
  46.2000        538
  46.3000        514
  46.4000        547
  46.5000        517
  46.6000        507
  46.7000        537
  46.8000        571
  46.9000        489
  47.0000        533
  47.1000        523
  47.2000        529
  47.3000        521
  47.4000        536
  47.5000        515
  47.6000        524
  47.7000        542
  47.8000        506
  47.9000        519
  48.0000        516
  48.1000        560
  48.2000        555
  48.3000        576
  48.4000        498
  48.5000        517
  48.6000        522
  48.7000        492
  48.8000        524
  48.9000        496
  49.0000        554
  49.1000        558
  49.2000        521
  49.3000        531
  49.4000        566
  49.5000        517
  49.6000        509
  49.7000        553
  49.8000        552
  49.9000        548
  50.0000        515
  50.1000        556
  50.2000        506
  50.3000        522
  50.4000        529
  50.5000        556
  50.6000        551
  50.7000        532
  50.8000        539
  50.9000        580
  51.0000        542
  51.1000        566
  51.2000        562
  51.3000        589
  51.4000        575
  51.5000        628
  51.6000        723
  51.7000        764
  51.8000        934
  51.9000       1015
  52.0000       1105
  52.1000       1097
  52.2000       1134
  52.3000       1108
  52.4000       1085
  52.5000       1025
  52.6000        822
  52.7000        709
  52.8000        639
  52.9000        584
  53.0000        559
  53.1000        549
  53.2000        498
  53.3000        529
  53.4000        592
  53.5000        534
  53.6000        512
  53.7000        547
  53.8000        532
  53.9000        527
  54.0000        477
  54.1000        538
  54.2000        574
  54.3000        521
  54.4000        533
  54.5000        538
  54.6000        523
  54.7000        551
  54.8000        499
  54.9000        507
  55.0000        531
  55.1000        531
  55.2000        503
  55.3000        501
  55.4000        515
  55.5000        496
  55.6000        504
  55.7000        509
  55.8000        541
  55.9000        562
  56.0000        501
  56.1000        533
  56.2000        514
  56.3000        538
  56.4000        546
  56.5000        533
  56.6000        515
  56.7000        505
  56.8000        480
  56.9000        530
  57.0000        497
  57.1000        525
  57.2000        511
  57.3000        485
  57.4000        531
  57.5000        535
  57.6000        506
  57.7000        470
  57.8000        534
  57.9000        501
  58.0000        541
  58.1000        505
  58.2000        524
  58.3000        489
  58.4000        547
  58.5000        532
  58.6000        509
  58.7000        518
  58.8000        553
  58.9000        600
  59.0000        552
  59.1000        542
  59.2000        514
  59.3000        531
  59.4000        550
  59.5000        533
  59.6000        601
  59.7000        544
  59.8000        568
  59.9000        541
  60.0000        567
  60.1000        525
  60.2000        542
  60.3000        570
  60.4000        524
  60.5000        526
  60.6000        515
  60.7000        531
  60.8000        496
  60.9000        506
  61.0000        489
  61.1000        501
  61.2000        504
  61.3000        509
  61.4000        517
  61.5000        495
  61.6000        538
  61.7000        513
  61.8000        495
  61.9000        549
  62.0000        534
  62.1000        514
  62.2000        489
  62.3000        544
  62.4000        522
  62.5000        542
  62.6000        504
  62.7000        479
  62.8000        511
  62.9000        497
  63.0000        542
  63.1000        498
  63.2000        481
  63.3000        493
  63.4000        505
  63.5000        467
  63.6000        494
  63.7000        505
  63.8000        517
  63.9000        507
  64.0000        531
  64.1000        506
  64.2000        546
  64.3000        523
  64.4000        508
  64.5000        510
  64.6000        512
  64.7000        529
  64.8000        521
  64.9000        523
  65.0000        471
  65.1000        524
  65.2000        490
  65.3000        544
  65.4000        534
  65.5000        477
  65.6000        550
  65.7000        472
  65.8000        497
  65.9000        488
  66.0000        514
  66.1000        514
  66.2000        534
  66.3000        518
  66.4000        521
  66.5000        504
  66.6000        523
  66.7000        495
  66.8000        491
  66.9000        500
  67.0000        512
  67.1000        507
  67.2000        531
  67.3000        506
  67.4000        544
  67.5000        508
  67.6000        529
  67.7000        496
  67.8000        496
  67.9000        526
  68.0000        517
  68.1000        503
  68.2000        510
  68.3000        471
  68.4000        533
  68.5000        518
  68.6000        529
  68.7000        566
  68.8000        519
  68.9000        468
  69.0000        549
  69.1000        535
  69.2000        536
  69.3000        523
  69.4000        496
  69.5000        509
  69.6000        461
  69.7000        523
  69.8000        510
  69.9000        511
  70.0000        494
  70.1000        519
  70.2000        547
  70.3000        509
  70.4000        510
  70.5000        486
  70.6000        485
  70.7000        528
  70.8000        473
  70.9000        494
  71.0000        549
  71.1000        494
  71.2000        546
  71.3000        522
  71.4000        497
  71.5000        521
  71.6000        476
  71.7000        518
  71.8000        499
  71.9000        493
  72.0000        514
  72.1000        498
  72.2000        488
  72.3000        520
  72.4000        524
  72.5000        561
  72.6000        533
  72.7000        476
  72.8000        547
  72.9000        548
  73.0000        509
  73.1000        526
  73.2000        516
  73.3000        458
  73.4000        514
  73.5000        508
  73.6000        505
  73.7000        488
  73.8000        488
  73.9000        521
  74.0000        478
  74.1000        468
  74.2000        504
  74.3000        485
  74.4000        536
  74.5000        511
  74.6000        499
  74.7000        520
  74.8000        508
  74.9000        506
  75.0000        544
  75.1000        491
  75.2000        532
  75.3000        479
  75.4000        513
  75.5000        546
  75.6000        477
  75.7000        585
  75.8000        530
  75.9000        571
  76.0000        573
  76.1000        635
  76.2000        777
  76.3000        791
  76.4000       1004
  76.5000       1119
  76.6000       1214
  76.7000       1244
  76.8000       1362
  76.9000       1328
  77.0000       1364
  77.1000       1238
  77.2000       1113
  77.3000        962
  77.4000        868
  77.5000        757
  77.6000        696
  77.7000        611
  77.8000        558
  77.9000        574
  78.0000        585
  78.1000        510
  78.2000        524
  78.3000        555
  78.4000        513
  78.5000        518
  78.6000        569
  78.7000        519
  78.8000        560
  78.9000        559
  79.0000        518
  79.1000        501
  79.2000        508
  79.3000        532
  79.4000        550
  79.5000        545
  79.6000        525
  79.7000        548
  79.8000        504
  79.9000        508
  80.0000        482
  80.1000        531
  80.2000        523
  80.3000        538
  80.4000        485
  80.5000        516
  80.6000        546
  80.7000        533
  80.8000        525
  80.9000        558
  81.0000        516
  81.1000        516
  81.2000        531
  81.3000        510
  81.4000        511
  81.5000        481
  81.6000        497
  81.7000        478
  81.8000        486
  81.9000        521
  82.0000        493
  82.1000        498
  82.2000        549
  82.3000        484
  82.4000        570
  82.5000        508
  82.6000        455
  82.7000        539
  82.8000        550
  82.9000        500
  83.0000        549
  83.1000        517
  83.2000        514
  83.3000        523
  83.4000        513
  83.5000        519
  83.6000        498
  83.7000        505
  83.8000        558
  83.9000        548
  84.0000        508
  84.1000        487
  84.2000        474
  84.3000        504
  84.4000        488
  84.5000        488
  84.6000        477
  84.7000        534
  84.8000        534
  84.9000        510
  85.0000        545
  85.1000        491
  85.2000        509
  85.3000        499
  85.4000        454
  85.5000        537
  85.6000        521
  85.7000        521
  85.8000        505
  85.9000        507
  86.0000        528
  86.1000        502
  86.2000        504
  86.3000        474
  86.4000        543
  86.5000        502
  86.6000        498
  86.7000        472
  86.8000        525
  86.9000        532
  87.0000        531
  87.1000        515
  87.2000        546
  87.3000        498
  87.4000        519
  87.5000        533
  87.6000        487
  87.7000        538
  87.8000        563
  87.9000        545
  88.0000        528
  88.1000        533
  88.2000        524
  88.3000        475
  88.4000        500
  88.5000        530
  88.6000        534
  88.7000        520
  88.8000        538
  88.9000        559
  89.0000        581
  89.1000        592
  89.2000        639
  89.3000        545
  89.4000        631
  89.5000        579
  89.6000        645
  89.7000        599
  89.8000        568
  89.9000        568
  90.0000        552
  90.1000        583
  90.2000        503
  90.3000        517
  90.4000        536
  90.5000        555
  90.6000        548
  90.7000        555
  90.8000        505
  90.9000        517
  91.0000        561
  91.1000        518
  91.2000        509
  91.3000        511
  91.4000        546
  91.5000        509
  91.6000        486
  91.7000        493
  91.8000        533
  91.9000        510
  92.0000        492
  92.1000        509
  92.2000        458
  92.3000        492
  92.4000        506
  92.5000        501
  92.6000        507
  92.7000        506
  92.8000        516
  92.9000        525
  93.0000        493
  93.1000        567
  93.2000        527
  93.3000        500
  93.4000        500
  93.5000        492
  93.6000        478
  93.7000        485
  93.8000        533
  93.9000        525
  94.0000        532
  94.1000        496
  94.2000        472
  94.3000        513
  94.4000        494
  94.5000        529
  94.6000        497
  94.7000        513
  94.8000        506
  94.9000        505
  95.0000        507
  95.1000        502
  95.2000        515
  95.3000        481
  95.4000        473
  95.5000        488
  95.6000        480
  95.7000        501
  95.8000        521
  95.9000        502
  96.0000        520
  96.1000        539
  96.2000        521
  96.3000        507
  96.4000        558
  96.5000        505
  96.6000        546
  96.7000        504
  96.8000        509
  96.9000        528
  97.0000        552
  97.1000        515
  97.2000        539
  97.3000        551
  97.4000        525
  97.5000        535
  97.6000        513
  97.7000        516
  97.8000        485
  97.9000        494
  98.0000        544
  98.1000        553
  98.2000        563
  98.3000        614
  98.4000        604
  98.5000        673
  98.6000        761
  98.7000        885
  98.8000       1027
  98.9000       1231
  99.0000       1405
  99.1000       1473
  99.2000       1545
  99.3000       1572
  99.4000       1606
  99.5000       1512
  99.6000       1403
  99.7000       1196
  99.8000       1089
  99.9000        904
 100.0000        799
 100.1000        724
 100.2000        674
 100.3000        598
 100.4000        569
 100.5000        599
 100.6000        537
 100.7000        529
 100.8000        508
 100.9000        527
 101.0000        560
 101.1000        521
 101.2000        530
 101.3000        546
 101.4000        535
 101.5000        530
 101.6000        521
 101.7000        493
 101.8000        525
 101.9000        532
 102.0000        545
 102.1000        491
 102.2000        535
 102.3000        514
 102.4000        507
 102.5000        525
 102.6000        543
 102.7000        577
 102.8000        534
 102.9000        503
 103.0000        523
 103.1000        522
 103.2000        533
 103.3000        484
 103.4000        561
 103.5000        484
 103.6000        512
 103.7000        522
 103.8000        549
 103.9000        506
 104.0000        501
 104.1000        514
 104.2000        536
 104.3000        514
 104.4000        504
 104.5000        523
 104.6000        509
 104.7000        512
 104.8000        526
 104.9000        522
 105.0000        488
 105.1000        538
 105.2000        477
 105.3000        546
 105.4000        506
 105.5000        490
 105.6000        472
 105.7000        531
 105.8000        562
 105.9000        482
 106.0000        529
 106.1000        495
 106.2000        537
 106.3000        523
 106.4000        537
 106.5000        504
 106.6000        495
 106.7000        498
 106.8000        517
 106.9000        505
 107.0000        510
 107.1000        517
 107.2000        523
 107.3000        488
 107.4000        537
 107.5000        519
 107.6000        503
 107.7000        511
 107.8000        513
 107.9000        527
 108.0000        515
 108.1000        507
 108.2000        519
 108.3000        518
 108.4000        545
 108.5000        522
 108.6000        533
 108.7000        486
 108.8000        499
 108.9000        476
 109.0000        548
 109.1000        504
 109.2000        535
 109.3000        524
 109.4000        476
 109.5000        551
 109.6000        555
 109.7000        547
 109.8000        538
 109.9000        547
 110.0000        556
 110.1000        536
 110.2000        517
 110.3000        510
 110.4000        549
 110.5000        484
 110.6000        550
 110.7000        530
 110.8000        516
 110.9000        562
 111.0000        574
 111.1000        538
 111.2000        575
 111.3000        503
 111.4000        558
 111.5000        575
 111.6000        587
 111.7000        530
 111.8000        543
 111.9000        559
 112.0000        478
 112.1000        537
 112.2000        516
 112.3000        527
 112.4000        545
 112.5000        477
 112.6000        520
 112.7000        533
 112.8000        569
 112.9000        486
 113.0000        515
 113.1000        522
 113.2000        501
 113.3000        502
 113.4000        574
 113.5000        518
 113.6000        513
 113.7000        525
 113.8000        510
 113.9000        553
 114.0000        516
 114.1000        475
 114.2000        483
 114.3000        524
 114.4000        520
 114.5000        479
 114.6000        508
 114.7000        457
 114.8000        519
 114.9000        509
 115.0000        476
 115.1000        479
 115.2000        538
 115.3000        494
 115.4000        512
 115.5000        519
 115.6000        500
 115.7000        542
 115.8000        471
 115.9000        524
 116.0000        511
 116.1000        467
 116.2000        519
 116.3000        539
 116.4000        499
 116.5000        489
 116.6000        534
 116.7000        508
 116.8000        497
 116.9000        492
 117.0000        522
 117.1000        497
 117.2000        525
 117.3000        527
 117.4000        489
 117.5000        502
 117.6000        477
 117.7000        503
 117.8000        542
 117.9000        476
 118.0000        536
 118.1000        477
 118.2000        475
 118.3000        500
 118.4000        512
 118.5000        477
 118.6000        510
 118.7000        512
 118.8000        508
 118.9000        503
 119.0000        495
 119.1000        499
 119.2000        510
 119.3000        507
 119.4000        574
 119.5000        539
 119.6000        507
 119.7000        519
 119.8000        523
 119.9000        499
 120.0000        505
 120.1000        490
 120.2000        484
 120.3000        499
 120.4000        504
 120.5000        516
 120.6000        499
 120.7000        512
 120.8000        474
 120.9000        480
 121.0000        495
 121.1000        516
 121.2000        511
 121.3000        542
 121.4000        513
 121.5000        508
 121.6000        490
 121.7000        473
 121.8000        503
 121.9000        506
 122.0000        501
 122.1000        485
 122.2000        504
 122.3000        492
 122.4000        491
 122.5000        533
 122.6000        544
 122.7000        514
 122.8000        548
 122.9000        529
 123.0000        542
 123.1000        536
 123.2000        530
 123.3000        565
 123.4000        556
 123.5000        585
 123.6000        535
 123.7000        529
 123.8000        533
 123.9000        517
 124.0000        549
 124.1000        525
 124.2000        537
 124.3000        513
 124.4000        497
 124.5000        505
 124.6000        495
 124.7000        513
 124.8000        520
 124.9000        502
 125.0000        548
 125.1000        507
 125.2000        556
 125.3000        553
 125.4000        524
 125.5000        487
 125.6000        532
 125.7000        500
 125.8000        547
 125.9000        498
 126.0000        507
 126.1000        550
 126.2000        485
 126.3000        527
 126.4000        559
 126.5000        500
 126.6000        508
 126.7000        530
 126.8000        497
 126.9000        516
 127.0000        528
 127.1000        523
 127.2000        475
 127.3000        532
 127.4000        550
 127.5000        501
 127.6000        523
 127.7000        520
 127.8000        477
 127.9000        496
 128.0000        534
 128.1000        492
 128.2000        492
 128.3000        558
 128.4000        492
 128.5000        473
 128.6000        507
 128.7000        564
 128.8000        508
 128.9000        523
 129.0000        477
 129.1000        452
 129.2000        520
 129.3000        554
 129.4000        513
 129.5000        501
 129.6000        492
 129.7000        504
 129.8000        502
 129.9000        551
 130.0000        517

; Data for range 2
_DRIVE = COUPLED
_STEPTIME = 0.2
_STEPSIZE = 0.1
_STEPMODE = C
_START = 40
_THETA = 20
_2THETA = 40
_KHI = 10.5
_PHI = 60
_X = -25
_Y = -25
_Z = 0
_DETECTOR = 1
; Detector type : Scintillation counter
_HV = 687
_GAIN = 80
_LLD = 0.69
_ULD = 1.866
_DETECTORSLIT = unkn
_AUX1 = 0
_AUX2 = 0
_AUX3 = 0
_TIMESTARTED = 225
_TEMP_RATE = -1
_TEMP_DELAY = -1
_KV = 35
_MA = 40
_RANGE_WL = 1.78897
_3DPLANE = 0
_V4_ADDITIONALDETECTOR = 0
_V4_D8_DIBNUM = 1
_V4_DETECTORNAME = "Detector 1"
_V4_TTLDETECTOR = None
_V4_DETECTORTYPE = 1
_V4_DETECTORFLAGS = 524545
_V4_DETECTORHV = 687
_V4_DETECTORGAIN = 80
_V4_DETECTORLLD1 = 0.69
_V4_DETECTORWW1 = 1.176
_V4_DETECTORLLD2 = 0
_V4_DETECTORWW2 = 0
_V4_DETECTORPS = 0
_V4_DETECTORDT = 0
_V4_DETECTORPILEUPTIME = 0
_V4_COUNTERS_MASK = 1
_V4_DRIVES_MASK = 0
_V4_ENCODERS_MASK = 0
_2THETACOUNTS = 1
; 2THETA  Cnt1_D1
  40.0000        516
  40.1000        540
  40.2000        499
  40.3000        533
  40.4000        527
  40.5000        577
  40.6000        537
  40.7000        542
  40.8000        542
  40.9000        515
  41.0000        513
  41.1000        529
  41.2000        489
  41.3000        494
  41.4000        528
  41.5000        511
  41.6000        527
  41.7000        529
  41.8000        495
  41.9000        561
  42.0000        534
  42.1000        508
  42.2000        523
  42.3000        525
  42.4000        477
  42.5000        471
  42.6000        524
  42.7000        525
  42.8000        532
  42.9000        542
  43.0000        546
  43.1000        518
  43.2000        537
  43.3000        510
  43.4000        511
  43.5000        542
  43.6000        505
  43.7000        520
  43.8000        525
  43.9000        509
  44.0000        508
  44.1000        545
  44.2000        518
  44.3000        542
  44.4000        518
  44.5000        534
  44.6000        507
  44.7000        517
  44.8000        527
  44.9000        517
  45.0000        500
  45.1000        500
  45.2000        533
  45.3000        554
  45.4000        527
  45.5000        528
  45.6000        538
  45.7000        521
  45.8000        537
  45.9000        497
  46.0000        494
  46.1000        524
  46.2000        539
  46.3000        515
  46.4000        555
  46.5000        467
  46.6000        557
  46.7000        541
  46.8000        539
  46.9000        505
  47.0000        509
  47.1000        516
  47.2000        540
  47.3000        526
  47.4000        547
  47.5000        516
  47.6000        541
  47.7000        490
  47.8000        521
  47.9000        552
  48.0000        523
  48.1000        538
  48.2000        526
  48.3000        492
  48.4000        534
  48.5000        519
  48.6000        570
  48.7000        535
  48.8000        524
  48.9000        502
  49.0000        545
  49.1000        550
  49.2000        541
  49.3000        530
  49.4000        511
  49.5000        516
  49.6000        526
  49.7000        532
  49.8000        543
  49.9000        560
  50.0000        538
  50.1000        526
  50.2000        511
  50.3000        529
  50.4000        548
  50.5000        548
  50.6000        591
  50.7000        595
  50.8000        547
  50.9000        559
  51.0000        594
  51.1000        537
  51.2000        594
  51.3000        574
  51.4000        602
  51.5000        643
  51.6000        725
  51.7000        870
  51.8000       1015
  51.9000       1120
  52.0000       1252
  52.1000       1309
  52.2000       1271
  52.3000       1295
  52.4000       1240
  52.5000       1067
  52.6000       1019
  52.7000        792
  52.8000        617
  52.9000        565
  53.0000        551
  53.1000        534
  53.2000        539
  53.3000        519
  53.4000        514
  53.5000        526
  53.6000        532
  53.7000        507
  53.8000        481
  53.9000        527
  54.0000        538
  54.1000        531
  54.2000        536
  54.3000        541
  54.4000        510
  54.5000        554
  54.6000        502
  54.7000        554
  54.8000        530
  54.9000        520
  55.0000        532
  55.1000        485
  55.2000        535
  55.3000        537
  55.4000        462
  55.5000        516
  55.6000        493
  55.7000        523
  55.8000        543
  55.9000        514
  56.0000        536
  56.1000        539
  56.2000        521
  56.3000        500
  56.4000        498
  56.5000        466
  56.6000        517
  56.7000        522
  56.8000        533
  56.9000        536
  57.0000        530
  57.1000        561
  57.2000        504
  57.3000        487
  57.4000        520
  57.5000        509
  57.6000        499
  57.7000        474
  57.8000        524
  57.9000        547
  58.0000        495
  58.1000        526
  58.2000        564
  58.3000        515
  58.4000        442
  58.5000        500
  58.6000        511
  58.7000        532
  58.8000        522
  58.9000        524
  59.0000        519
  59.1000        516
  59.2000        523
  59.3000        579
  59.4000        520
  59.5000        500
  59.6000        516
  59.7000        516
  59.8000        562
  59.9000        548
  60.0000        511
  60.1000        559
  60.2000        532
  60.3000        511
  60.4000        479
  60.5000        538
  60.6000        542
  60.7000        497
  60.8000        487
  60.9000        507
  61.0000        504
  61.1000        527
  61.2000        539
  61.3000        513
  61.4000        547
  61.5000        507
  61.6000        504
  61.7000        531
  61.8000        498
  61.9000        476
  62.0000        460
  62.1000        493
  62.2000        557
  62.3000        509
  62.4000        521
  62.5000        505
  62.6000        503
  62.7000        504
  62.8000        504
  62.9000        501
  63.0000        520
  63.1000        518
  63.2000        509
  63.3000        521
  63.4000        551
  63.5000        499
  63.6000        513
  63.7000        507
  63.8000        501
  63.9000        503
  64.0000        510
  64.1000        522
  64.2000        492
  64.3000        530
  64.4000        522
  64.5000        531
  64.6000        504
  64.7000        531
  64.8000        498
  64.9000        549
  65.0000        499
  65.1000        489
  65.2000        527
  65.3000        542
  65.4000        497
  65.5000        509
  65.6000        534
  65.7000        521
  65.8000        461
  65.9000        515
  66.0000        488
  66.1000        517
  66.2000        544
  66.3000        484
  66.4000        524
  66.5000        481
  66.6000        470
  66.7000        495
  66.8000        505
  66.9000        473
  67.0000        503
  67.1000        504
  67.2000        553
  67.3000        462
  67.4000        491
  67.5000        497
  67.6000        501
  67.7000        498
  67.8000        480
  67.9000        530
  68.0000        523
  68.1000        496
  68.2000        515
  68.3000        512
  68.4000        520
  68.5000        466
  68.6000        476
  68.7000        496
  68.8000        551
  68.9000        527
  69.0000        521
  69.1000        530
  69.2000        538
  69.3000        475
  69.4000        522
  69.5000        507
  69.6000        531
  69.7000        526
  69.8000        512
  69.9000        510
  70.0000        532
  70.1000        495
  70.2000        513
  70.3000        519
  70.4000        505
  70.5000        436
  70.6000        479
  70.7000        540
  70.8000        491
  70.9000        535
  71.0000        543
  71.1000        516
  71.2000        510
  71.3000        516
  71.4000        487
  71.5000        507
  71.6000        526
  71.7000        481
  71.8000        544
  71.9000        532
  72.0000        496
  72.1000        504
  72.2000        483
  72.3000        477
  72.4000        517
  72.5000        528
  72.6000        505
  72.7000        525
  72.8000        480
  72.9000        523
  73.0000        529
  73.1000        546
  73.2000        488
  73.3000        537
  73.4000        500
  73.5000        560
  73.6000        525
  73.7000        501
  73.8000        527
  73.9000        499
  74.0000        466
  74.1000        543
  74.2000        486
  74.3000        509
  74.4000        493
  74.5000        474
  74.6000        525
  74.7000        478
  74.8000        503
  74.9000        537
  75.0000        526
  75.1000        536
  75.2000        540
  75.3000        502
  75.4000        513
  75.5000        530
  75.6000        531
  75.7000        488
  75.8000        580
  75.9000        540
  76.0000        519
  76.1000        562
  76.2000        569
  76.3000        590
  76.4000        630
  76.5000        694
  76.6000        650
  76.7000        759
  76.8000        735
  76.9000        761
  77.0000        738
  77.1000        718
  77.2000        704
  77.3000        678
  77.4000        621
  77.5000        568
  77.6000        570
  77.7000        565
  77.8000        499
  77.9000        581
  78.0000        485
  78.1000        518
  78.2000        496
  78.3000        444
  78.4000        529
  78.5000        527
  78.6000        514
  78.7000        509
  78.8000        491
  78.9000        549
  79.0000        528
  79.1000        494
  79.2000        488
  79.3000        488
  79.4000        525
  79.5000        498
  79.6000        504
  79.7000        491
  79.8000        489
  79.9000        481
  80.0000        538
  80.1000        492
  80.2000        506
  80.3000        508
  80.4000        455
  80.5000        496
  80.6000        530
  80.7000        471
  80.8000        507
  80.9000        521
  81.0000        539
  81.1000        510
  81.2000        494
  81.3000        488
  81.4000        492
  81.5000        482
  81.6000        489
  81.7000        481
  81.8000        500
  81.9000        489
  82.0000        524
  82.1000        525
  82.2000        471
  82.3000        457
  82.4000        497
  82.5000        483
  82.6000        501
  82.7000        507
  82.8000        501
  82.9000        480
  83.0000        471
  83.1000        512
  83.2000        476
  83.3000        503
  83.4000        487
  83.5000        532
  83.6000        483
  83.7000        496
  83.8000        520
  83.9000        500
  84.0000        499
  84.1000        514
  84.2000        497
  84.3000        522
  84.4000        490
  84.5000        512
  84.6000        515
  84.7000        528
  84.8000        530
  84.9000        488
  85.0000        503
  85.1000        496
  85.2000        532
  85.3000        503
  85.4000        523
  85.5000        502
  85.6000        510
  85.7000        520
  85.8000        516
  85.9000        485
  86.0000        499
  86.1000        502
  86.2000        523
  86.3000        494
  86.4000        502
  86.5000        527
  86.6000        511
  86.7000        450
  86.8000        509
  86.9000        513
  87.0000        551
  87.1000        531
  87.2000        536
  87.3000        458
  87.4000        513
  87.5000        517
  87.6000        517
  87.7000        527
  87.8000        485
  87.9000        477
  88.0000        531
  88.1000        523
  88.2000        510
  88.3000        525
  88.4000        501
  88.5000        523
  88.6000        510
  88.7000        536
  88.8000        527
  88.9000        544
  89.0000        561
  89.1000        496
  89.2000        518
  89.3000        512
  89.4000        572
  89.5000        541
  89.6000        595
  89.7000        551
  89.8000        524
  89.9000        551
  90.0000        535
  90.1000        479
  90.2000        521
  90.3000        552
  90.4000        492
  90.5000        533
  90.6000        485
  90.7000        474
  90.8000        514
  90.9000        535
  91.0000        506
  91.1000        512
  91.2000        510
  91.3000        525
  91.4000        489
  91.5000        520
  91.6000        469
  91.7000        509
  91.8000        524
  91.9000        489
  92.0000        514
  92.1000        491
  92.2000        473
  92.3000        498
  92.4000        509
  92.5000        501
  92.6000        540
  92.7000        527
  92.8000        537
  92.9000        488
  93.0000        500
  93.1000        527
  93.2000        490
  93.3000        502
  93.4000        481
  93.5000        506
  93.6000        508
  93.7000        486
  93.8000        514
  93.9000        516
  94.0000        513
  94.1000        504
  94.2000        516
  94.3000        511
  94.4000        509
  94.5000        468
  94.6000        486
  94.7000        464
  94.8000        534
  94.9000        480
  95.0000        467
  95.1000        521
  95.2000        518
  95.3000        489
  95.4000        529
  95.5000        497
  95.6000        519
  95.7000        526
  95.8000        552
  95.9000        518
  96.0000        499
  96.1000        520
  96.2000        528
  96.3000        507
  96.4000        545
  96.5000        498
  96.6000        522
  96.7000        507
  96.8000        506
  96.9000        496
  97.0000        534
  97.1000        481
  97.2000        533
  97.3000        492
  97.4000        532
  97.5000        512
  97.6000        518
  97.7000        541
  97.8000        501
  97.9000        549
  98.0000        502
  98.1000        576
  98.2000        577
  98.3000        533
  98.4000        520
  98.5000        584
  98.6000        606
  98.7000        622
  98.8000        694
  98.9000        763
  99.0000        879
  99.1000        906
  99.2000        964
  99.3000        981
  99.4000        994
  99.5000        941
  99.6000        936
  99.7000        780
  99.8000        739
  99.9000        683
 100.0000        609
 100.1000        629
 100.2000        602
 100.3000        551
 100.4000        574
 100.5000        551
 100.6000        517
 100.7000        545
 100.8000        499
 100.9000        475
 101.0000        464
 101.1000        513
 101.2000        524
 101.3000        510
 101.4000        555
 101.5000        511
 101.6000        555
 101.7000        495
 101.8000        521
 101.9000        493
 102.0000        526
 102.1000        481
 102.2000        467
 102.3000        504
 102.4000        495
 102.5000        506
 102.6000        501
 102.7000        548
 102.8000        493
 102.9000        494
 103.0000        515
 103.1000        531
 103.2000        478
 103.3000        514
 103.4000        506
 103.5000        529
 103.6000        534
 103.7000        514
 103.8000        529
 103.9000        515
 104.0000        488
 104.1000        512
 104.2000        539
 104.3000        511
 104.4000        500
 104.5000        550
 104.6000        562
 104.7000        511
 104.8000        504
 104.9000        496
 105.0000        499
 105.1000        535
 105.2000        501
 105.3000        511
 105.4000        540
 105.5000        514
 105.6000        539
 105.7000        521
 105.8000        474
 105.9000        529
 106.0000        503
 106.1000        528
 106.2000        481
 106.3000        473
 106.4000        488
 106.5000        498
 106.6000        517
 106.7000        485
 106.8000        494
 106.9000        504
 107.0000        500
 107.1000        529
 107.2000        503
 107.3000        512
 107.4000        509
 107.5000        460
 107.6000        499
 107.7000        516
 107.8000        526
 107.9000        506
 108.0000        508
 108.1000        489
 108.2000        508
 108.3000        502
 108.4000        498
 108.5000        505
 108.6000        475
 108.7000        526
 108.8000        529
 108.9000        493
 109.0000        530
 109.1000        497
 109.2000        531
 109.3000        480
 109.4000        483
 109.5000        519
 109.6000        574
 109.7000        549
 109.8000        504
 109.9000        500
 110.0000        506
 110.1000        536
 110.2000        494
 110.3000        530
 110.4000        541
 110.5000        486
 110.6000        510
 110.7000        550
 110.8000        534
 110.9000        543
 111.0000        541
 111.1000        540
 111.2000        532
 111.3000        490
 111.4000        524
 111.5000        547
 111.6000        541
 111.7000        516
 111.8000        554
 111.9000        496
 112.0000        497
 112.1000        558
 112.2000        489
 112.3000        533
 112.4000        531
 112.5000        499
 112.6000        554
 112.7000        526
 112.8000        509
 112.9000        510
 113.0000        528
 113.1000        513
 113.2000        489
 113.3000        537
 113.4000        518
 113.5000        556
 113.6000        524
 113.7000        507
 113.8000        483
 113.9000        510
 114.0000        495
 114.1000        513
 114.2000        480
 114.3000        508
 114.4000        511
 114.5000        520
 114.6000        476
 114.7000        499
 114.8000        496
 114.9000        508
 115.0000        496
 115.1000        555
 115.2000        504
 115.3000        501
 115.4000        506
 115.5000        547
 115.6000        554
 115.7000        481
 115.8000        510
 115.9000        510
 116.0000        459
 116.1000        500
 116.2000        500
 116.3000        498
 116.4000        496
 116.5000        465
 116.6000        509
 116.7000        496
 116.8000        496
 116.9000        502
 117.0000        492
 117.1000        518
 117.2000        486
 117.3000        535
 117.4000        494
 117.5000        501
 117.6000        506
 117.7000        532
 117.8000        468
 117.9000        502
 118.0000        526
 118.1000        460
 118.2000        507
 118.3000        536
 118.4000        516
 118.5000        534
 118.6000        481
 118.7000        519
 118.8000        501
 118.9000        462
 119.0000        504
 119.1000        516
 119.2000        485
 119.3000        487
 119.4000        522
 119.5000        509
 119.6000        525
 119.7000        489
 119.8000        530
 119.9000        519
 120.0000        527
 120.1000        473
 120.2000        506
 120.3000        487
 120.4000        482
 120.5000        497
 120.6000        520
 120.7000        509
 120.8000        483
 120.9000        512
 121.0000        490
 121.1000        477
 121.2000        502
 121.3000        512
 121.4000        496
 121.5000        514
 121.6000        516
 121.7000        531
 121.8000        512
 121.9000        526
 122.0000        503
 122.1000        472
 122.2000        518
 122.3000        499
 122.4000        567
 122.5000        564
 122.6000        540
 122.7000        540
 122.8000        493
 122.9000        521
 123.0000        598
 123.1000        548
 123.2000        555
 123.3000        562
 123.4000        553
 123.5000        624
 123.6000        565
 123.7000        592
 123.8000        564
 123.9000        574
 124.0000        552
 124.1000        510
 124.2000        553
 124.3000        499
 124.4000        491
 124.5000        512
 124.6000        534
 124.7000        492
 124.8000        509
 124.9000        562
 125.0000        493
 125.1000        504
 125.2000        509
 125.3000        508
 125.4000        476
 125.5000        509
 125.6000        506
 125.7000        502
 125.8000        519
 125.9000        476
 126.0000        517
 126.1000        505
 126.2000        442
 126.3000        491
 126.4000        504
 126.5000        505
 126.6000        484
 126.7000        506
 126.8000        509
 126.9000        469
 127.0000        519
 127.1000        513
 127.2000        485
 127.3000        498
 127.4000        456
 127.5000        478
[...]
 129.2000        443
 129.3000        426
 129.4000        440
 129.5000        473
 129.6000        464
 129.7000        460
 129.8000        449
 129.9000        436
 130.0000        483

; Data for range 53
_DRIVE = COUPLED
_STEPTIME = 0.2
_STEPSIZE = 0.1
_STEPMODE = C
_START = 40
_THETA = 20
_2THETA = 40
_KHI = 80
_PHI = 0
_X = -25
_Y = -25
_Z = 0
_DETECTOR = 1
; Detector type : Scintillation counter
_HV = 687
_GAIN = 80
_LLD = 0.69
_ULD = 1.866
_DETECTORSLIT = unkn
_AUX1 = 0
_AUX2 = 0
_AUX3 = 0
_TIMESTARTED = 1.03e+004
_TEMP_RATE = -1
_TEMP_DELAY = -1
_KV = 35
_MA = 40
_RANGE_WL = 1.78897
_3DPLANE = 0
_V4_ADDITIONALDETECTOR = 0
_V4_D8_DIBNUM = 1
_V4_DETECTORNAME = "Detector 1"
_V4_TTLDETECTOR = None
_V4_DETECTORTYPE = 1
_V4_DETECTORFLAGS = 524545
_V4_DETECTORHV = 687
_V4_DETECTORGAIN = 80
_V4_DETECTORLLD1 = 0.69
_V4_DETECTORWW1 = 1.176
_V4_DETECTORLLD2 = 0
_V4_DETECTORWW2 = 0
_V4_DETECTORPS = 0
_V4_DETECTORDT = 0
_V4_DETECTORPILEUPTIME = 0
_V4_COUNTERS_MASK = 1
_V4_DRIVES_MASK = 0
_V4_ENCODERS_MASK = 0
_2THETACOUNTS = 1
; 2THETA  Cnt1_D1
  40.0000        179
  40.1000        162
  40.2000        165
  40.3000        155
  40.4000        169
  40.5000        166
  40.6000        152
  40.7000        180
  40.8000        177
  40.9000        176
  41.0000        165
  41.1000        154
  41.2000        176
  41.3000        166
  41.4000        158
  41.5000        161
  41.6000        180
  41.7000        148
  41.8000        177
  41.9000        201
  42.0000        148
  42.1000        181
  42.2000        167
  42.3000        143
  42.4000        198
  42.5000        158
  42.6000        172
  42.7000        173
  42.8000        192
  42.9000        202
  43.0000        171
  43.1000        218
  43.2000        190
  43.3000        241
  43.4000        216
  43.5000        201
  43.6000        253
  43.7000        237
  43.8000        247
  43.9000        212
  44.0000        216
  44.1000        227
  44.2000        204
  44.3000        169
  44.4000        176
  44.5000        200
  44.6000        180
  44.7000        193
  44.8000        178
  44.9000        174
  45.0000        170
  45.1000        200
  45.2000        187
  45.3000        196
  45.4000        180
  45.5000        173
  45.6000        182
  45.7000        203
  45.8000        203
  45.9000        186
  46.0000        206
  46.1000        183
  46.2000        184
  46.3000        170
  46.4000        180
  46.5000        169
  46.6000        169
  46.7000        198
  46.8000        215
  46.9000        192
  47.0000        186
  47.1000        209
  47.2000        183
  47.3000        187
  47.4000        179
  47.5000        191
  47.6000        188
  47.7000        210
  47.8000        183
  47.9000        197
  48.0000        198
  48.1000        189
  48.2000        188
  48.3000        184
  48.4000        193
  48.5000        193
  48.6000        212
  48.7000        189
  48.8000        195
  48.9000        180
  49.0000        176
  49.1000        194
  49.2000        197
  49.3000        212
  49.4000        213
  49.5000        213
  49.6000        192
  49.7000        200
  49.8000        197
  49.9000        228
  50.0000        215
  50.1000        223
  50.2000        230
  50.3000        227
  50.4000        220
  50.5000        242
  50.6000        290
  50.7000        296
  50.8000        312
  50.9000        317
  51.0000        337
  51.1000        344
  51.2000        367
  51.3000        454
  51.4000        458
  51.5000        506
  51.6000        545
  51.7000        613
  51.8000        698
  51.9000        790
  52.0000        828
  52.1000        848
  52.2000        871
  52.3000        902
  52.4000        908
  52.5000        840
  52.6000        824
  52.7000        842
  52.8000        707
  52.9000        638
  53.0000        586
  53.1000        497
  53.2000        442
  53.3000        367
  53.4000        319
  53.5000        281
  53.6000        276
  53.7000        267
  53.8000        238
  53.9000        238
  54.0000        216
  54.1000        232
  54.2000        227
  54.3000        210
  54.4000        216
  54.5000        228
  54.6000        230
  54.7000        222
  54.8000        216
  54.9000        217
  55.0000        211
  55.1000        190
  55.2000        244
  55.3000        233
  55.4000        221
  55.5000        234
  55.6000        210
  55.7000        226
  55.8000        245
  55.9000        207
  56.0000        227
  56.1000        238
  56.2000        206
  56.3000        241
  56.4000        219
  56.5000        228
  56.6000        209
  56.7000        252
  56.8000        212
  56.9000        222
  57.0000        226
  57.1000        229
  57.2000        262
  57.3000        194
  57.4000        235
  57.5000        229
  57.6000        209
  57.7000        210
  57.8000        219
  57.9000        257
  58.0000        209
  58.1000        258
  58.2000        200
  58.3000        243
  58.4000        245
  58.5000        244
  58.6000        215
  58.7000        234
  58.8000        253
  58.9000        212
  59.0000        249
  59.1000        255
  59.2000        265
  59.3000        255
  59.4000        244
  59.5000        252
  59.6000        227
  59.7000        236
  59.8000        244
  59.9000        291
  60.0000        248
  60.1000        260
  60.2000        259
  60.3000        264
  60.4000        267
  60.5000        266
  60.6000        246
  60.7000        236
  60.8000        261
  60.9000        252
  61.0000        244
  61.1000        263
  61.2000        234
  61.3000        227
  61.4000        268
  61.5000        243
  61.6000        245
  61.7000        258
  61.8000        259
  61.9000        249
  62.0000        249
  62.1000        250
  62.2000        275
  62.3000        208
  62.4000        247
  62.5000        284
  62.6000        241
  62.7000        272
  62.8000        254
  62.9000        257
  63.0000        265
  63.1000        255
  63.2000        213
  63.3000        266
  63.4000        257
  63.5000        226
  63.6000        243
  63.7000        266
  63.8000        244
  63.9000        241
  64.0000        245
  64.1000        269
  64.2000        255
  64.3000        257
  64.4000        265
  64.5000        226
  64.6000        249
  64.7000        268
  64.8000        240
  64.9000        247
  65.0000        251
  65.1000        246
  65.2000        255
  65.3000        275
  65.4000        265
  65.5000        245
  65.6000        260
  65.7000        268
  65.8000        265
  65.9000        280
  66.0000        253
  66.1000        254
  66.2000        244
  66.3000        247
  66.4000        292
  66.5000        265
  66.6000        263
  66.7000        267
  66.8000        255
  66.9000        254
  67.0000        255
  67.1000        265
  67.2000        312
  67.3000        264
  67.4000        254
  67.5000        247
  67.6000        249
  67.7000        272
  67.8000        224
  67.9000        258
  68.0000        279
  68.1000        271
  68.2000        288
  68.3000        250
  68.4000        250
  68.5000        289
  68.6000        247
  68.7000        261
  68.8000        307
  68.9000        285
  69.0000        290
  69.1000        264
  69.2000        273
  69.3000        261
  69.4000        277
  69.5000        289
  69.6000        277
  69.7000        257
  69.8000        286
  69.9000        262
  70.0000        267
  70.1000        291
  70.2000        299
  70.3000        265
  70.4000        255
  70.5000        266
  70.6000        264
  70.7000        241
  70.8000        238
  70.9000        269
  71.0000        278
  71.1000        297
  71.2000        287
  71.3000        296
  71.4000        269
  71.5000        268
  71.6000        285
  71.7000        271
  71.8000        293
  71.9000        312
  72.0000        303
  72.1000        274
  72.2000        293
  72.3000        270
  72.4000        308
  72.5000        276
  72.6000        292
  72.7000        260
  72.8000        295
  72.9000        276
  73.0000        280
  73.1000        309
  73.2000        281
  73.3000        298
  73.4000        308
  73.5000        280
  73.6000        290
  73.7000        253
  73.8000        292
  73.9000        320
  74.0000        298
  74.1000        301
  74.2000        261
  74.3000        300
  74.4000        284
  74.5000        294
  74.6000        326
  74.7000        306
  74.8000        293
  74.9000        308
  75.0000        338
  75.1000        336
  75.2000        330
  75.3000        299
  75.4000        298
  75.5000        302
  75.6000        319
  75.7000        309
  75.8000        304
  75.9000        342
  76.0000        302
  76.1000        349
  76.2000        361
  76.3000        340
  76.4000        327
  76.5000        362
  76.6000        365
  76.7000        348
  76.8000        365
  76.9000        333
  77.0000        372
  77.1000        351
  77.2000        353
  77.3000        322
  77.4000        345
  77.5000        369
  77.6000        327
  77.7000        307
  77.8000        349
  77.9000        357
  78.0000        350
  78.1000        316
  78.2000        333
  78.3000        326
  78.4000        304
  78.5000        328
  78.6000        346
  78.7000        323
  78.8000        304
  78.9000        268
  79.0000        314
  79.1000        288
  79.2000        321
  79.3000        315
  79.4000        322
  79.5000        316
  79.6000        307
  79.7000        306
  79.8000        307
  79.9000        301
  80.0000        315
  80.1000        332
  80.2000        325
  80.3000        323
  80.4000        334
  80.5000        328
  80.6000        313
  80.7000        319
  80.8000        316
  80.9000        331
  81.0000        320
  81.1000        317
  81.2000        332
  81.3000        340
  81.4000        321
  81.5000        320
  81.6000        315
  81.7000        317
  81.8000        318
  81.9000        299
  82.0000        332
  82.1000        326
  82.2000        361
  82.3000        344
  82.4000        337
  82.5000        341
  82.6000        334
  82.7000        284
  82.8000        341
  82.9000        329
  83.0000        318
  83.1000        326
  83.2000        332
  83.3000        299
  83.4000        334
  83.5000        344
  83.6000        303
  83.7000        315
  83.8000        371
  83.9000        312
  84.0000        330
  84.1000        307
  84.2000        320
  84.3000        337
  84.4000        330
  84.5000        341
  84.6000        313
  84.7000        351
  84.8000        326
  84.9000        320
  85.0000        363
  85.1000        390
  85.2000        350
  85.3000        335
  85.4000        310
  85.5000        311
  85.6000        367
  85.7000        338
  85.8000        343
  85.9000        341
  86.0000        323
  86.1000        311
  86.2000        392
  86.3000        334
  86.4000        338
  86.5000        347
  86.6000        364
  86.7000        361
  86.8000        323
  86.9000        344
  87.0000        371
  87.1000        359
  87.2000        324
  87.3000        341
  87.4000        363
  87.5000        314
  87.6000        340
  87.7000        364
  87.8000        340
  87.9000        350
  88.0000        362
  88.1000        360
  88.2000        374
  88.3000        350
  88.4000        394
  88.5000        365
  88.6000        376
  88.7000        378
  88.8000        365
  88.9000        352
  89.0000        352
  89.1000        355
  89.2000        391
  89.3000        362
  89.4000        346
  89.5000        396
  89.6000        388
  89.7000        377
  89.8000        364
  89.9000        354
  90.0000        394
  90.1000        366
  90.2000        363
  90.3000        391
  90.4000        353
  90.5000        356
  90.6000        361
  90.7000        354
  90.8000        363
  90.9000        343
  91.0000        351
  91.1000        366
  91.2000        369
  91.3000        394
  91.4000        360
  91.5000        356
  91.6000        360
  91.7000        350
  91.8000        346
  91.9000        363
  92.0000        323
  92.1000        368
  92.2000        372
  92.3000        406
  92.4000        366
  92.5000        353
  92.6000        378
  92.7000        351
  92.8000        358
  92.9000        363
  93.0000        366
  93.1000        395
  93.2000        367
  93.3000        363
  93.4000        387
  93.5000        375
  93.6000        400
  93.7000        372
  93.8000        392
  93.9000        369
  94.0000        384
  94.1000        371
  94.2000        353
  94.3000        388
  94.4000        327
  94.5000        360
  94.6000        402
  94.7000        378
  94.8000        387
  94.9000        391
  95.0000        389
  95.1000        382
  95.2000        383
  95.3000        367
  95.4000        355
  95.5000        367
  95.6000        363
  95.7000        369
  95.8000        383
  95.9000        366
  96.0000        381
  96.1000        397
  96.2000        388
  96.3000        349
  96.4000        393
  96.5000        398
  96.6000        371
  96.7000        386
  96.8000        419
  96.9000        381
  97.0000        369
  97.1000        373
  97.2000        370
  97.3000        376
  97.4000        382
  97.5000        385
  97.6000        359
  97.7000        414
  97.8000        412
  97.9000        434
  98.0000        444
  98.1000        458
  98.2000        476
  98.3000        509
  98.4000        516
  98.5000        529
  98.6000        524
  98.7000        657
  98.8000        618
  98.9000        653
  99.0000        655
  99.1000        621
  99.2000        669
  99.3000        706
  99.4000        728
  99.5000        631
  99.6000        613
  99.7000        585
  99.8000        631
  99.9000        584
 100.0000        521
 100.1000        541
 100.2000        547
 100.3000        547
 100.4000        487
 100.5000        482
 100.6000        451
 100.7000        420
 100.8000        455
 100.9000        435
 101.0000        405
 101.1000        419
 101.2000        396
 101.3000        407
 101.4000        400
 101.5000        405
 101.6000        413
 101.7000        404
 101.8000        408
 101.9000        372
 102.0000        395
 102.1000        383
 102.2000        390
 102.3000        396
 102.4000        402
 102.5000        414
 102.6000        406
 102.7000        411
 102.8000        399
 102.9000        419
 103.0000        425
 103.1000        376
 103.2000        397
 103.3000        398
 103.4000        422
 103.5000        396
 103.6000        382
 103.7000        401
 103.8000        419
 103.9000        391
 104.0000        376
 104.1000        412
 104.2000        408
 104.3000        392
 104.4000        401
 104.5000        402
 104.6000        404
 104.7000        424
 104.8000        415
 104.9000        431
 105.0000        420
 105.1000        411
 105.2000        437
 105.3000        424
 105.4000        421
 105.5000        377
 105.6000        421
 105.7000        381
 105.8000        401
 105.9000        403
 106.0000        388
 106.1000        404
 106.2000        398
 106.3000        422
 106.4000        383
 106.5000        407
 106.6000        422
 106.7000        408
 106.8000        413
 106.9000        445
 107.0000        438
 107.1000        424
 107.2000        414
 107.3000        421
 107.4000        400
 107.5000        378
 107.6000        427
 107.7000        421
 107.8000        359
 107.9000        425
 108.0000        383
 108.1000        371
 108.2000        429
 108.3000        395
 108.4000        424
 108.5000        419
 108.6000        457
 108.7000        448
 108.8000        410
 108.9000        439
 109.0000        436
 109.1000        428
 109.2000        407
 109.3000        437
 109.4000        411
 109.5000        423
 109.6000        412
 109.7000        459
 109.8000        459
 109.9000        436
 110.0000        432
 110.1000        459
 110.2000        417
 110.3000        387
 110.4000        402
 110.5000        447
 110.6000        426
 110.7000        423
 110.8000        411
 110.9000        425
 111.0000        425
 111.1000        406
 111.2000        457
 111.3000        435
 111.4000        459
 111.5000        433
 111.6000        426
 111.7000        456
 111.8000        444
 111.9000        427
 112.0000        438
 112.1000        426
 112.2000        423
 112.3000        455
 112.4000        403
 112.5000        442
 112.6000        418
 112.7000        454
 112.8000        455
 112.9000        428
 113.0000        411
 113.1000        409
 113.2000        423
 113.3000        443
 113.4000        445
 113.5000        458
 113.6000        493
 113.7000        455
 113.8000        463
 113.9000        419
 114.0000        410
 114.1000        431
 114.2000        427
 114.3000        439
 114.4000        421
 114.5000        402
 114.6000        434
 114.7000        429
 114.8000        431
 114.9000        445
 115.0000        416
 115.1000        455
 115.2000        431
 115.3000        448
 115.4000        409
 115.5000        438
 115.6000        457
 115.7000        453
 115.8000        440
 115.9000        420
 116.0000        416
 116.1000        434
 116.2000        463
 116.3000        444
 116.4000        410
 116.5000        432
 116.6000        445
 116.7000        417
 116.8000        430
 116.9000        467
 117.0000        415
 117.1000        456
 117.2000        444
 117.3000        413
 117.4000        449
 117.5000        450
 117.6000        430
 117.7000        428
 117.8000        427
 117.9000        410
 118.0000        430
 118.1000        417
 118.2000        400
 118.3000        435
 118.4000        409
 118.5000        459
 118.6000        437
 118.7000        442
 118.8000        454
 118.9000        458
 119.0000        457
 119.1000        443
 119.2000        422
 119.3000        428
 119.4000        414
 119.5000        417
 119.6000        473
 119.7000        428
 119.8000        411
 119.9000        460
 120.0000        461
 120.1000        458
 120.2000        411
 120.3000        398
 120.4000        445
 120.5000        465
 120.6000        432
 120.7000        402
 120.8000        457
 120.9000        444
 121.0000        466
 121.1000        477
 121.2000        389
 121.3000        460
 121.4000        412
 121.5000        470
 121.6000        450
 121.7000        449
 121.8000        455
 121.9000        478
 122.0000        426
 122.1000        440
 122.2000        505
 122.3000        486
 122.4000        477
 122.5000        488
 122.6000        481
 122.7000        550
 122.8000        552
 122.9000        544
 123.0000        586
 123.1000        585
 123.2000        591
 123.3000        616
 123.4000        568
 123.5000        596
 123.6000        599
 123.7000        601
 123.8000        575
 123.9000        577
 124.0000        589
 124.1000        557
 124.2000        519
 124.3000        509
 124.4000        499
 124.5000        494
 124.6000        469
 124.7000        417
 124.8000        480
 124.9000        480
 125.0000        422
 125.1000        485
 125.2000        485
 125.3000        421
 125.4000        426
 125.5000        476
 125.6000        415
 125.7000        437
 125.8000        428
 125.9000        450
 126.0000        464
 126.1000        448
 126.2000        446
 126.3000        475
 126.4000        431
 126.5000        471
 126.6000        450
 126.7000        413
 126.8000        450
 126.9000        438
 127.0000        443
 127.1000        422
 127.2000        481
 127.3000        461
 127.4000        442
 127.5000        424
 127.6000        409
 127.7000        418
 127.8000        458
 127.9000        426
 128.0000        460
 128.1000        456
 128.2000        411
 128.3000        396
 128.4000        435
 128.5000        462
 128.6000        408
 128.7000        436
 128.8000        381
 128.9000        439
 129.0000        439
 129.1000        442
 129.2000        446
 129.3000        416
 129.4000        454
 129.5000        447
 129.6000        442
 129.7000        460
 129.8000        452
 129.9000        465
 130.0000        430