File: exp_dat/old/exp_2013_11_11/03pct_150G.uxd
; (content of file C:\DIFFDAT1\GIFT\MDL\Seawoong Lee\20131104_MV8\equal_area_maxkhi080_n8_2th40_130_x00y25_150g.raw)
_FILEVERSION = 3
_SAMPLE =
_+SAMPLE =
_SITE = Korea
_USER = Admin
_GONIOMETER_CODE = 20
; Goniometer : D8 theta/2theta, stage : Unknown
_SAMPLE_CHANGER_CODE = 0
_ATTACHMENTS_CODE = 0
_GONIOMETER_RADIUS = 300
_FIXED_DIVSLIT = 1
_FIXED_SAMPLESLIT = 0
_SOLLER_SLITS = 2
_FIXED_DETSLIT = 0.1
_MONOCHROMATOR = 0
; Incident beam monochromator : None
_SOLLER_SLITS_2 = 2
_THIN_FILM = N
_BETA_FILTER = Y
_FIXED_ANTISLIT = 0.6
_ANALYZER_CODE = 0
; Received beam analyzer : None
_DATEMEASURED = "06-Nov-2013 03:42:28"
_WL_UNIT = A
_WL1 = 1.78897
_WL2 = 1.79285
_WL3 = 1.62079
_WLRATIO = 0.5
_ANODE = Co
_V4_INF_CREATOR = XRDWizard
_V4_INF_CREATOR_VERSION = V2.9.0.22
_V4_INF_WIZARD_VERSION = V2.9.0.22
_V4_INF_WIZARD_ADDINS = V2.9.0.22
_V4_INF_WIZARD_DOCTYPE = XRD
_V4_INF_OSUSER = Postech
_V4_INF_USER = Admin
_V4_INF_SITE = Korea

; Data for range 1
_DRIVE = COUPLED
_STEPTIME = 0.2
_STEPSIZE = 0.1
_STEPMODE = C
_START = 40
_THETA = 20
_2THETA = 40
_KHI = 0
_PHI = 0
_X = 0
_Y = 25
_Z = 0
_DETECTOR = 1
; Detector type : Scintillation counter
_HV = 687
_GAIN = 80
_LLD = 0.69
_ULD = 1.866
_DETECTORSLIT = unkn
_AUX1 = 0
_AUX2 = 0
_AUX3 = 0
_TIMESTARTED = 28
_TEMP_RATE = -1
_TEMP_DELAY = -1
_KV = 35
_MA = 40
_RANGE_WL = 1.78897
_3DPLANE = 0
_V4_ADDITIONALDETECTOR = 0
_V4_D8_DIBNUM = 1
_V4_DETECTORNAME = "Detector 1"
_V4_TTLDETECTOR = None
_V4_DETECTORTYPE = 1
_V4_DETECTORFLAGS = 524545
_V4_DETECTORHV = 687
_V4_DETECTORGAIN = 80
_V4_DETECTORLLD1 = 0.69
_V4_DETECTORWW1 = 1.176
_V4_DETECTORLLD2 = 0
_V4_DETECTORWW2 = 0
_V4_DETECTORPS = 0
_V4_DETECTORDT = 0
_V4_DETECTORPILEUPTIME = 0
_V4_COUNTERS_MASK = 1
_V4_DRIVES_MASK = 0
_V4_ENCODERS_MASK = 0
_2THETACOUNTS = 1
; 2THETA  Cnt1_D1
  40.0000        477
  40.1000        573
  40.2000        538
  40.3000        467
  40.4000        493
  40.5000        507
  40.6000        488
  40.7000        529
  40.8000        435
  40.9000        534
  41.0000        526
  41.1000        491
  41.2000        516
  41.3000        499
  41.4000        534
  41.5000        488
  41.6000        530
  41.7000        510
  41.8000        520
  41.9000        477
  42.0000        488
  42.1000        515
  42.2000        480
  42.3000        456
  42.4000        513
  42.5000        542
  42.6000        495
  42.7000        569
  42.8000        498
  42.9000        510
  43.0000        489
  43.1000        539
  43.2000        492
  43.3000        535
  43.4000        496
  43.5000        547
  43.6000        546
  43.7000        548
  43.8000        515
  43.9000        511
  44.0000        519
  44.1000        532
  44.2000        499
  44.3000        514
  44.4000        527
  44.5000        516
  44.6000        521
  44.7000        547
  44.8000        506
  44.9000        479
  45.0000        490
  45.1000        536
  45.2000        545
  45.3000        533
  45.4000        540
  45.5000        554
  45.6000        530
  45.7000        504
  45.8000        505
  45.9000        501
  46.0000        517
  46.1000        520
  46.2000        488
  46.3000        523
  46.4000        490
  46.5000        491
  46.6000        486
  46.7000        531
  46.8000        519
  46.9000        507
  47.0000        554
  47.1000        522
  47.2000        493
  47.3000        548
  47.4000        518
  47.5000        548
  47.6000        491
  47.7000        546
  47.8000        505
  47.9000        549
  48.0000        477
  48.1000        518
  48.2000        538
  48.3000        525
  48.4000        515
  48.5000        508
  48.6000        537
  48.7000        531
  48.8000        508
  48.9000        516
  49.0000        528
  49.1000        548
  49.2000        467
  49.3000        527
  49.4000        506
  49.5000        499
  49.6000        507
  49.7000        493
  49.8000        551
  49.9000        510
  50.0000        492
  50.1000        525
  50.2000        568
  50.3000        573
  50.4000        548
  50.5000        601
  50.6000        565
  50.7000        537
  50.8000        560
  50.9000        535
  51.0000        587
  51.1000        569
  51.2000        615
  51.3000        580
  51.4000        564
  51.5000        557
  51.6000        641
  51.7000        732
  51.8000        887
  51.9000        951
  52.0000        974
  52.1000       1023
  52.2000       1026
  52.3000       1033
  52.4000       1037
  52.5000        917
  52.6000        833
  52.7000        717
  52.8000        634
  52.9000        588
  53.0000        522
  53.1000        541
  53.2000        530
  53.3000        575
  53.4000        520
  53.5000        536
  53.6000        522
  53.7000        519
  53.8000        519
  53.9000        508
  54.0000        524
  54.1000        519
  54.2000        540
  54.3000        540
  54.4000        510
  54.5000        553
  54.6000        506
  54.7000        544
  54.8000        519
  54.9000        545
  55.0000        520
  55.1000        507
  55.2000        524
  55.3000        535
  55.4000        549
  55.5000        506
  55.6000        545
  55.7000        518
  55.8000        494
  55.9000        552
  56.0000        504
  56.1000        537
  56.2000        491
  56.3000        507
  56.4000        537
  56.5000        492
  56.6000        519
  56.7000        507
  56.8000        539
  56.9000        518
  57.0000        488
  57.1000        508
  57.2000        526
  57.3000        525
  57.4000        560
  57.5000        471
  57.6000        532
  57.7000        511
  57.8000        546
  57.9000        520
  58.0000        504
  58.1000        503
  58.2000        482
  58.3000        513
  58.4000        516
  58.5000        545
  58.6000        515
  58.7000        524
  58.8000        521
  58.9000        502
  59.0000        509
  59.1000        524
  59.2000        555
  59.3000        538
  59.4000        586
  59.5000        560
  59.6000        587
  59.7000        543
  59.8000        525
  59.9000        560
  60.0000        545
  60.1000        531
  60.2000        523
  60.3000        537
  60.4000        534
  60.5000        497
  60.6000        539
  60.7000        550
  60.8000        487
  60.9000        529
  61.0000        527
  61.1000        547
  61.2000        515
  61.3000        510
  61.4000        530
  61.5000        531
  61.6000        494
  61.7000        505
  61.8000        521
  61.9000        534
  62.0000        508
  62.1000        503
  62.2000        496
  62.3000        511
  62.4000        518
  62.5000        535
  62.6000        504
  62.7000        507
  62.8000        551
  62.9000        524
  63.0000        492
  63.1000        546
  63.2000        475
  63.3000        529
  63.4000        499
  63.5000        563
  63.6000        506
  63.7000        537
  63.8000        535
  63.9000        573
  64.0000        488
  64.1000        549
  64.2000        515
  64.3000        501
  64.4000        508
  64.5000        491
  64.6000        511
  64.7000        510
  64.8000        502
  64.9000        498
  65.0000        523
  65.1000        484
  65.2000        508
  65.3000        545
  65.4000        505
  65.5000        533
  65.6000        530
  65.7000        546
  65.8000        488
  65.9000        485
  66.0000        502
  66.1000        493
  66.2000        480
  66.3000        504
  66.4000        544
  66.5000        540
  66.6000        536
  66.7000        555
  66.8000        500
  66.9000        483
  67.0000        497
  67.1000        504
  67.2000        481
  67.3000        515
  67.4000        584
  67.5000        534
  67.6000        508
  67.7000        513
  67.8000        493
  67.9000        541
  68.0000        556
  68.1000        511
  68.2000        530
  68.3000        569
  68.4000        507
  68.5000        532
  68.6000        535
  68.7000        520
  68.8000        538
  68.9000        528
  69.0000        482
  69.1000        519
  69.2000        496
  69.3000        508
  69.4000        538
  69.5000        512
  69.6000        563
  69.7000        543
  69.8000        547
  69.9000        533
  70.0000        499
  70.1000        518
  70.2000        528
  70.3000        524
  70.4000        538
  70.5000        518
  70.6000        486
  70.7000        512
  70.8000        533
  70.9000        537
  71.0000        509
  71.1000        517
  71.2000        469
  71.3000        512
  71.4000        499
  71.5000        518
  71.6000        482
  71.7000        533
  71.8000        490
  71.9000        490
  72.0000        540
  72.1000        547
  72.2000        512
  72.3000        547
  72.4000        481
  72.5000        510
  72.6000        506
  72.7000        507
  72.8000        501
  72.9000        531
  73.0000        503
  73.1000        481
  73.2000        509
  73.3000        517
  73.4000        549
  73.5000        503
  73.6000        516
  73.7000        525
  73.8000        513
  73.9000        483
  74.0000        486
  74.1000        491
  74.2000        530
  74.3000        495
  74.4000        505
  74.5000        512
  74.6000        526
  74.7000        490
  74.8000        506
  74.9000        517
  75.0000        512
  75.1000        492
  75.2000        498
  75.3000        487
  75.4000        498
  75.5000        536
  75.6000        569
  75.7000        526
  75.8000        555
  75.9000        590
  76.0000        612
  76.1000        642
  76.2000        748
  76.3000        868
  76.4000        876
  76.5000       1039
  76.6000       1134
  76.7000       1183
  76.8000       1247
  76.9000       1179
  77.0000       1174
  77.1000       1101
  77.2000       1024
  77.3000        896
  77.4000        792
  77.5000        665
  77.6000        627
  77.7000        588
  77.8000        589
  77.9000        520
  78.0000        567
  78.1000        513
  78.2000        509
  78.3000        554
  78.4000        495
  78.5000        480
  78.6000        540
  78.7000        534
  78.8000        544
  78.9000        517
  79.0000        511
  79.1000        519
  79.2000        505
  79.3000        525
  79.4000        544
  79.5000        516
  79.6000        494
  79.7000        529
  79.8000        501
  79.9000        492
  80.0000        503
  80.1000        512
  80.2000        515
  80.3000        479
  80.4000        500
  80.5000        476
  80.6000        512
  80.7000        520
  80.8000        476
  80.9000        528
  81.0000        476
  81.1000        502
  81.2000        510
  81.3000        529
  81.4000        501
  81.5000        568
  81.6000        518
  81.7000        500
  81.8000        511
  81.9000        487
  82.0000        539
  82.1000        502
  82.2000        528
  82.3000        522
  82.4000        531
  82.5000        510
  82.6000        501
  82.7000        509
  82.8000        539
  82.9000        530
  83.0000        520
  83.1000        499
  83.2000        519
  83.3000        496
  83.4000        533
  83.5000        493
  83.6000        542
  83.7000        502
  83.8000        499
  83.9000        490
  84.0000        493
  84.1000        456
  84.2000        485
  84.3000        504
  84.4000        512
  84.5000        502
  84.6000        512
  84.7000        515
  84.8000        521
  84.9000        522
  85.0000        547
  85.1000        508
  85.2000        511
  85.3000        522
  85.4000        551
  85.5000        522
  85.6000        497
  85.7000        522
  85.8000        525
  85.9000        512
  86.0000        520
  86.1000        532
  86.2000        513
  86.3000        516
  86.4000        527
  86.5000        489
  86.6000        552
  86.7000        539
  86.8000        490
  86.9000        528
  87.0000        516
  87.1000        515
  87.2000        502
  87.3000        482
  87.4000        524
  87.5000        537
  87.6000        493
  87.7000        535
  87.8000        528
  87.9000        552
  88.0000        552
  88.1000        482
  88.2000        554
  88.3000        550
  88.4000        539
  88.5000        581
  88.6000        535
  88.7000        567
  88.8000        563
  88.9000        590
  89.0000        598
  89.1000        616
  89.2000        666
  89.3000        704
  89.4000        700
  89.5000        625
  89.6000        655
  89.7000        647
  89.8000        656
  89.9000        646
  90.0000        605
  90.1000        564
  90.2000        574
  90.3000        547
  90.4000        570
  90.5000        589
  90.6000        524
  90.7000        548
  90.8000        500
  90.9000        515
  91.0000        531
  91.1000        499
  91.2000        547
  91.3000        503
  91.4000        485
  91.5000        496
  91.6000        503
  91.7000        496
  91.8000        529
  91.9000        523
  92.0000        529
  92.1000        536
  92.2000        529
  92.3000        492
  92.4000        489
  92.5000        503
  92.6000        508
  92.7000        516
  92.8000        515
  92.9000        496
  93.0000        533
  93.1000        534
  93.2000        530
  93.3000        495
  93.4000        515
  93.5000        510
  93.6000        537
  93.7000        538
  93.8000        516
  93.9000        493
  94.0000        531
  94.1000        538
  94.2000        540
  94.3000        510
  94.4000        476
  94.5000        520
  94.6000        554
  94.7000        509
  94.8000        485
  94.9000        524
  95.0000        488
  95.1000        487
  95.2000        500
  95.3000        536
  95.4000        495
  95.5000        486
  95.6000        510
  95.7000        469
  95.8000        544
  95.9000        522
  96.0000        505
  96.1000        531
  96.2000        501
  96.3000        519
  96.4000        503
  96.5000        505
  96.6000        515
  96.7000        541
  96.8000        521
  96.9000        525
  97.0000        498
  97.1000        546
  97.2000        531
  97.3000        559
  97.4000        526
  97.5000        514
  97.6000        495
  97.7000        545
  97.8000        501
  97.9000        564
  98.0000        531
  98.1000        577
  98.2000        603
  98.3000        616
  98.4000        606
  98.5000        654
  98.6000        758
  98.7000        891
  98.8000       1037
  98.9000       1195
  99.0000       1413
  99.1000       1516
  99.2000       1543
  99.3000       1682
  99.4000       1545
  99.5000       1560
  99.6000       1471
  99.7000       1246
  99.8000       1168
  99.9000        970
 100.0000        827
 100.1000        762
 100.2000        680
 100.3000        579
 100.4000        592
 100.5000        578
 100.6000        571
 100.7000        528
 100.8000        610
 100.9000        538
 101.0000        526
 101.1000        496
 101.2000        545
 101.3000        532
 101.4000        508
 101.5000        498
 101.6000        502
 101.7000        528
 101.8000        546
 101.9000        511
 102.0000        511
 102.1000        532
 102.2000        541
 102.3000        492
 102.4000        558
 102.5000        553
 102.6000        504
 102.7000        529
 102.8000        537
 102.9000        498
 103.0000        493
 103.1000        501
 103.2000        508
 103.3000        596
 103.4000        537
 103.5000        513
 103.6000        545
 103.7000        499
 103.8000        537
 103.9000        529
 104.0000        511
 104.1000        484
 104.2000        492
 104.3000        545
 104.4000        534
 104.5000        495
 104.6000        500
 104.7000        452
 104.8000        546
 104.9000        495
 105.0000        509
 105.1000        497
 105.2000        492
 105.3000        544
 105.4000        499
 105.5000        498
 105.6000        492
 105.7000        470
 105.8000        494
 105.9000        488
 106.0000        508
 106.1000        477
 106.2000        525
 106.3000        517
 106.4000        486
 106.5000        522
 106.6000        513
 106.7000        543
 106.8000        529
 106.9000        581
 107.0000        511
 107.1000        527
 107.2000        503
 107.3000        481
 107.4000        512
 107.5000        497
 107.6000        493
 107.7000        516
 107.8000        525
 107.9000        495
 108.0000        526
 108.1000        521
 108.2000        537
 108.3000        478
 108.4000        491
 108.5000        524
 108.6000        473
 108.7000        494
 108.8000        563
 108.9000        499
 109.0000        503
 109.1000        478
 109.2000        547
 109.3000        497
 109.4000        504
 109.5000        526
 109.6000        478
 109.7000        528
 109.8000        535
 109.9000        545
 110.0000        497
 110.1000        541
 110.2000        550
 110.3000        523
 110.4000        551
 110.5000        542
 110.6000        606
 110.7000        529
 110.8000        511
 110.9000        598
 111.0000        589
 111.1000        585
 111.2000        572
 111.3000        559
 111.4000        566
 111.5000        543
 111.6000        531
 111.7000        566
 111.8000        541
 111.9000        525
 112.0000        501
 112.1000        522
 112.2000        533
 112.3000        496
 112.4000        491
 112.5000        523
 112.6000        518
 112.7000        497
 112.8000        513
 112.9000        457
 113.0000        510
 113.1000        505
 113.2000        460
 113.3000        531
 113.4000        519
 113.5000        545
 113.6000        499
 113.7000        519
 113.8000        510
 113.9000        533
 114.0000        532
 114.1000        517
 114.2000        478
 114.3000        486
 114.4000        487
 114.5000        487
 114.6000        530
 114.7000        542
 114.8000        527
 114.9000        508
 115.0000        453
 115.1000        523
 115.2000        454
 115.3000        523
 115.4000        508
 115.5000        491
 115.6000        522
 115.7000        477
 115.8000        512
 115.9000        515
 116.0000        500
 116.1000        528
 116.2000        491
 116.3000        539
 116.4000        524
 116.5000        482
 116.6000        464
 116.7000        526
 116.8000        513
 116.9000        531
 117.0000        497
 117.1000        487
 117.2000        502
 117.3000        473
 117.4000        529
 117.5000        491
 117.6000        512
 117.7000        502
 117.8000        498
 117.9000        505
 118.0000        530
 118.1000        505
 118.2000        553
 118.3000        497
 118.4000        508
 118.5000        508
 118.6000        489
 118.7000        512
 118.8000        507
 118.9000        470
 119.0000        515
 119.1000        481
 119.2000        565
 119.3000        531
 119.4000        553
 119.5000        507
 119.6000        474
 119.7000        526
 119.8000        527
 119.9000        512
 120.0000        463
 120.1000        501
 120.2000        494
 120.3000        532
 120.4000        517
 120.5000        540
 120.6000        526
 120.7000        516
 120.8000        500
 120.9000        492
 121.0000        497
 121.1000        517
 121.2000        511
 121.3000        525
 121.4000        523
 121.5000        530
 121.6000        532
 121.7000        500
 121.8000        484
 121.9000        525
 122.0000        470
 122.1000        474
 122.2000        506
 122.3000        506
 122.4000        551
 122.5000        536
 122.6000        518
 122.7000        495
 122.8000        531
 122.9000        529
 123.0000        503
 123.1000        551
 123.2000        546
 123.3000        565
 123.4000        515
 123.5000        546
 123.6000        539
 123.7000        523
 123.8000        557
 123.9000        517
 124.0000        506
 124.1000        561
 124.2000        503
 124.3000        540
 124.4000        554
 124.5000        508
 124.6000        541
 124.7000        469
 124.8000        494
 124.9000        527
 125.0000        523
 125.1000        514
 125.2000        534
 125.3000        492
 125.4000        540
 125.5000        515
 125.6000        453
 125.7000        533
 125.8000        502
 125.9000        524
 126.0000        485
 126.1000        510
 126.2000        486
 126.3000        532
 126.4000        483
 126.5000        521
 126.6000        458
 126.7000        552
 126.8000        529
 126.9000        492
 127.0000        530
 127.1000        514
 127.2000        517
 127.3000        507
 127.4000        505
 127.5000        492
 127.6000        553
 127.7000        534
 127.8000        503
 127.9000        486
 128.0000        521
 128.1000        505
 128.2000        521
 128.3000        502
 128.4000        503
 128.5000        492
 128.6000        491
 128.7000        487
 128.8000        506
 128.9000        491
 129.0000        459
 129.1000        536
 129.2000        502
 129.3000        512
 129.4000        483
 129.5000        458
 129.6000        521
 129.7000        504
 129.8000        514
 129.9000        506
 130.0000        514

; Data for range 2
_DRIVE = COUPLED
_STEPTIME = 0.2
_STEPSIZE = 0.1
_STEPMODE = C
_START = 40
_THETA = 20
_2THETA = 40
_KHI = 10.5
_PHI = 60
_X = 0
_Y = 25
_Z = 0
_DETECTOR = 1
; Detector type : Scintillation counter
_HV = 687
_GAIN = 80
_LLD = 0.69
_ULD = 1.866
_DETECTORSLIT = unkn
_AUX1 = 0
_AUX2 = 0
_AUX3 = 0
_TIMESTARTED = 225
_TEMP_RATE = -1
_TEMP_DELAY = -1
_KV = 35
_MA = 40
_RANGE_WL = 1.78897
_3DPLANE = 0
_V4_ADDITIONALDETECTOR = 0
_V4_D8_DIBNUM = 1
_V4_DETECTORNAME = "Detector 1"
_V4_TTLDETECTOR = None
_V4_DETECTORTYPE = 1
_V4_DETECTORFLAGS = 524545
_V4_DETECTORHV = 687
_V4_DETECTORGAIN = 80
_V4_DETECTORLLD1 = 0.69
_V4_DETECTORWW1 = 1.176
_V4_DETECTORLLD2 = 0
_V4_DETECTORWW2 = 0
_V4_DETECTORPS = 0
_V4_DETECTORDT = 0
_V4_DETECTORPILEUPTIME = 0
_V4_COUNTERS_MASK = 1
_V4_DRIVES_MASK = 0
_V4_ENCODERS_MASK = 0
_2THETACOUNTS = 1
; 2THETA  Cnt1_D1
  40.0000        537
  40.1000        497
  40.2000        576
  40.3000        511
  40.4000        520
  40.5000        552
  40.6000        496
  40.7000        506
  40.8000        517
  40.9000        537
  41.0000        524
  41.1000        513
  41.2000        518
  41.3000        505
  41.4000        526
  41.5000        569
  41.6000        543
  41.7000        547
  41.8000        538
  41.9000        566
  42.0000        549
  42.1000        524
  42.2000        547
  42.3000        542
  42.4000        548
  42.5000        530
  42.6000        509
  42.7000        530
  42.8000        517
  42.9000        496
  43.0000        503
  43.1000        492
  43.2000        500
  43.3000        547
  43.4000        521
  43.5000        557
  43.6000        532
  43.7000        537
  43.8000        534
  43.9000        523
  44.0000        539
  44.1000        546
  44.2000        576
  44.3000        520
  44.4000        517
  44.5000        542
  44.6000        528
  44.7000        469
  44.8000        605
  44.9000        514
  45.0000        520
  45.1000        557
  45.2000        521
  45.3000        517
  45.4000        582
  45.5000        533
  45.6000        581
  45.7000        551
  45.8000        533
  45.9000        520
  46.0000        564
  46.1000        534
  46.2000        549
  46.3000        530
  46.4000        523
  46.5000        480
  46.6000        530
  46.7000        521
  46.8000        542
  46.9000        526
  47.0000        526
  47.1000        509
  47.2000        559
  47.3000        537
  47.4000        548
  47.5000        552
  47.6000        501
  47.7000        511
  47.8000        545
  47.9000        542
  48.0000        552
  48.1000        531
  48.2000        504
  48.3000        558
  48.4000        495
  48.5000        517
  48.6000        506
  48.7000        532
  48.8000        512
  48.9000        550
  49.0000        518
  49.1000        518
  49.2000        531
  49.3000        501
  49.4000        536
  49.5000        512
  49.6000        517
  49.7000        518
  49.8000        469
  49.9000        556
  50.0000        503
  50.1000        542
  50.2000        501
  50.3000        533
  50.4000        559
  50.5000        534
  50.6000        569
  50.7000        592
  50.8000        546
  50.9000        627
  51.0000        578
  51.1000        569
  51.2000        579
  51.3000        584
  51.4000        619
  51.5000        617
  51.6000        730
  51.7000        820
  51.8000        916
  51.9000        995
  52.0000       1094
  52.1000       1127
  52.2000       1112
  52.3000       1100
  52.4000       1027
  52.5000        952
  52.6000        852
  52.7000        736
  52.8000        633
  52.9000        572
  53.0000        526
  53.1000        531
  53.2000        529
  53.3000        543
  53.4000        507
  53.5000        497
  53.6000        531
  53.7000        542
  53.8000        535
  53.9000        530
  54.0000        495
  54.1000        517
  54.2000        543
  54.3000        505
  54.4000        514
  54.5000        523
  54.6000        558
  54.7000        521
  54.8000        551
  54.9000        507
  55.0000        566
  55.1000        549
  55.2000        542
  55.3000        527
  55.4000        493
  55.5000        582
  55.6000        539
  55.7000        497
  55.8000        508
  55.9000        539
  56.0000        526
  56.1000        527
  56.2000        523
  56.3000        542
  56.4000        520
  56.5000        535
  56.6000        541
  56.7000        518
  56.8000        499
  56.9000        520
  57.0000        564
  57.1000        544
  57.2000        530
  57.3000        529
  57.4000        571
  57.5000        551
  57.6000        532
  57.7000        543
  57.8000        505
  57.9000        565
  58.0000        559
  58.1000        530
  58.2000        533
  58.3000        502
  58.4000        525
  58.5000        547
  58.6000        540
  58.7000        530
  58.8000        506
  58.9000        512
  59.0000        518
  59.1000        512
  59.2000        558
  59.3000        541
  59.4000        560
  59.5000        533
  59.6000        568
  59.7000        527
  59.8000        557
  59.9000        565
  60.0000        527
  60.1000        538
  60.2000        499
  60.3000        545
  60.4000        503
  60.5000        544
  60.6000        507
  60.7000        523
  60.8000        507
  60.9000        559
  61.0000        532
  61.1000        557
  61.2000        528
  61.3000        542
  61.4000        496
  61.5000        548
  61.6000        507
  61.7000        531
  61.8000        527
  61.9000        521
  62.0000        528
  62.1000        533
  62.2000        510
  62.3000        543
  62.4000        499
  62.5000        459
  62.6000        509
  62.7000        519
  62.8000        517
  62.9000        512
  63.0000        524
  63.1000        540
  63.2000        510
  63.3000        481
  63.4000        495
  63.5000        473
  63.6000        509
  63.7000        469
  63.8000        532
  63.9000        533
  64.0000        506
  64.1000        516
  64.2000        515
  64.3000        501
  64.4000        548
  64.5000        538
  64.6000        500
  64.7000        484
  64.8000        511
  64.9000        509
  65.0000        537
  65.1000        486
  65.2000        547
  65.3000        526
  65.4000        532
  65.5000        513
  65.6000        507
  65.7000        545
  65.8000        531
  65.9000        516
  66.0000        534
  66.1000        534
  66.2000        544
  66.3000        492
  66.4000        534
  66.5000        495
  66.6000        540
  66.7000        524
  66.8000        526
  66.9000        537
  67.0000        534
  67.1000        509
  67.2000        519
  67.3000        547
  67.4000        496
  67.5000        522
  67.6000        517
  67.7000        509
  67.8000        483
  67.9000        492
  68.0000        532
  68.1000        509
  68.2000        528
  68.3000        467
  68.4000        510
  68.5000        561
  68.6000        522
  68.7000        527
  68.8000        512
  68.9000        476
  69.0000        504
  69.1000        518
  69.2000        483
  69.3000        517
  69.4000        512
  69.5000        476
  69.6000        481
  69.7000        527
  69.8000        496
  69.9000        492
  70.0000        517
  70.1000        495
  70.2000        530
  70.3000        535
  70.4000        529
  70.5000        489
  70.6000        486
  70.7000        505
  70.8000        533
  70.9000        563
  71.0000        502
  71.1000        574
  71.2000        540
  71.3000        532
  71.4000        503
  71.5000        496
  71.6000        535
  71.7000        511
  71.8000        482
  71.9000        562
  72.0000        499
  72.1000        547
  72.2000        535
  72.3000        507
  72.4000        528
  72.5000        517
  72.6000        478
  72.7000        528
  72.8000        531
  72.9000        434
  73.0000        512
  73.1000        512
  73.2000        494
  73.3000        513
  73.4000        502
  73.5000        501
  73.6000        468
  73.7000        491
  73.8000        495
  73.9000        504
  74.0000        530
  74.1000        552
  74.2000        543
  74.3000        505
  74.4000        519
  74.5000        495
  74.6000        468
  74.7000        531
  74.8000        537
  74.9000        509
  75.0000        537
  75.1000        510
  75.2000        532
  75.3000        533
  75.4000        516
  75.5000        516
  75.6000        538
  75.7000        507
  75.8000        527
  75.9000        503
  76.0000        556
  76.1000        591
  76.2000        646
  76.3000        716
  76.4000        804
  76.5000        816
  76.6000        895
  76.7000        910
  76.8000        883
  76.9000        920
  77.0000        908
  77.1000        892
  77.2000        755
  77.3000        765
  77.4000        672
  77.5000        654
  77.6000        571
  77.7000        624
  77.8000        544
  77.9000        526
  78.0000        565
  78.1000        523
  78.2000        526
  78.3000        557
  78.4000        490
  78.5000        560
  78.6000        547
  78.7000        508
  78.8000        541
  78.9000        482
  79.0000        460
  79.1000        523
  79.2000        488
  79.3000        496
  79.4000        550
  79.5000        545
  79.6000        514
  79.7000        494
  79.8000        505
  79.9000        514
  80.0000        546
  80.1000        503
  80.2000        493
  80.3000        539
  80.4000        517
  80.5000        515
  80.6000        510
  80.7000        529
  80.8000        511
  80.9000        521
  81.0000        532
  81.1000        532
  81.2000        518
  81.3000        515
  81.4000        513
  81.5000        494
  81.6000        544
  81.7000        522
  81.8000        537
  81.9000        493
  82.0000        504
  82.1000        506
  82.2000        487
  82.3000        540
  82.4000        476
  82.5000        520
  82.6000        540
  82.7000        533
  82.8000        485
  82.9000        514
  83.0000        506
  83.1000        531
  83.2000        504
  83.3000        546
  83.4000        550
  83.5000        497
  83.6000        495
  83.7000        526
  83.8000        517
  83.9000        495
  84.0000        507
  84.1000        501
  84.2000        529
  84.3000        504
  84.4000        495
  84.5000        520
  84.6000        501
  84.7000        571
  84.8000        493
  84.9000        500
  85.0000        549
  85.1000        494
  85.2000        521
  85.3000        524
  85.4000        485
  85.5000        482
  85.6000        522
  85.7000        531
  85.8000        500
  85.9000        496
  86.0000        538
  86.1000        533
  86.2000        493
  86.3000        546
  86.4000        526
  86.5000        492
  86.6000        508
  86.7000        504
  86.8000        507
  86.9000        502
  87.0000        540
  87.1000        523
  87.2000        467
  87.3000        528
  87.4000        470
  87.5000        531
  87.6000        509
  87.7000        521
  87.8000        484
  87.9000        500
  88.0000        515
  88.1000        485
  88.2000        547
  88.3000        492
  88.4000        558
  88.5000        549
  88.6000        566
  88.7000        554
  88.8000        605
  88.9000        546
  89.0000        599
  89.1000        558
  89.2000        632
  89.3000        666
  89.4000        607
  89.5000        634
  89.6000        582
  89.7000        678
  89.8000        608
  89.9000        539
  90.0000        579
  90.1000        527
  90.2000        580
  90.3000        504
  90.4000        526
  90.5000        528
  90.6000        512
  90.7000        575
  90.8000        513
  90.9000        563
  91.0000        506
  91.1000        501
  91.2000        508
  91.3000        461
  91.4000        529
  91.5000        535
  91.6000        500
  91.7000        477
  91.8000        521
  91.9000        494
  92.0000        531
  92.1000        550
  92.2000        428
  92.3000        531
  92.4000        506
  92.5000        519
  92.6000        473
  92.7000        529
  92.8000        498
  92.9000        521
  93.0000        537
  93.1000        529
  93.2000        486
  93.3000        517
  93.4000        490
  93.5000        549
  93.6000        553
  93.7000        529
  93.8000        509
  93.9000        501
  94.0000        534
  94.1000        550
  94.2000        512
  94.3000        535
  94.4000        537
  94.5000        485
  94.6000        518
  94.7000        518
  94.8000        514
  94.9000        494
  95.0000        512
  95.1000        496
  95.2000        534
  95.3000        508
  95.4000        496
  95.5000        511
  95.6000        530
  95.7000        509
  95.8000        523
  95.9000        482
  96.0000        500
  96.1000        496
  96.2000        482
  96.3000        555
  96.4000        522
  96.5000        472
  96.6000        518
  96.7000        541
  96.8000        500
  96.9000        529
  97.0000        478
  97.1000        529
  97.2000        492
  97.3000        536
  97.4000        529
  97.5000        516
  97.6000        522
  97.7000        525
  97.8000        516
  97.9000        481
  98.0000        541
  98.1000        578
  98.2000        518
  98.3000        582
  98.4000        570
  98.5000        629
  98.6000        680
  98.7000        741
  98.8000        875
  98.9000        953
  99.0000       1121
  99.1000       1143
  99.2000       1157
  99.3000       1230
  99.4000       1220
  99.5000       1087
  99.6000       1084
  99.7000        962
  99.8000        909
  99.9000        873
 100.0000        716
 100.1000        617
 100.2000        636
 100.3000        555
 100.4000        512
 100.5000        568
 100.6000        509
 100.7000        568
 100.8000        565
 100.9000        536
 101.0000        540
 101.1000        503
 101.2000        505
 101.3000        502
 101.4000        521
 101.5000        548
 101.6000        463
 101.7000        537
 101.8000        517
 101.9000        537
 102.0000        566
 102.1000        522
 102.2000        487
 102.3000        498
 102.4000        535
 102.5000        504
 102.6000        535
 102.7000        531
 102.8000        539
 102.9000        528
 103.0000        516
 103.1000        494
 103.2000        535
 103.3000        499
 103.4000        501
 103.5000        540
 103.6000        517
 103.7000        480
 103.8000        549
 103.9000        522
 104.0000        520
 104.1000        530
 104.2000        527
 104.3000        504
 104.4000        549
 104.5000        547
 104.6000        509
 104.7000        521
 104.8000        494
 104.9000        494
 105.0000        496
 105.1000        525
 105.2000        509
 105.3000        461
 105.4000        532
 105.5000        513
 105.6000        560
 105.7000        523
 105.8000        490
 105.9000        482
 106.0000        480
 106.1000        522
 106.2000        540
 106.3000        567
 106.4000        488
 106.5000        512
 106.6000        463
 106.7000        508
 106.8000        513
 106.9000        516
 107.0000        537
 107.1000        529
 107.2000        538
 107.3000        489
 107.4000        541
 107.5000        487
 107.6000        501
 107.7000        530
 107.8000        517
 107.9000        524
 108.0000        495
 108.1000        501
 108.2000        543
 108.3000        510
 108.4000        530
 108.5000        527
 108.6000        496
 108.7000        514
 108.8000        543
 108.9000        494
 109.0000        506
 109.1000        516
 109.2000        526
 109.3000        532
 109.4000        485
 109.5000        566
 109.6000        511
 109.7000        525
 109.8000        545
 109.9000        517
 110.0000        517
 110.1000        524
 110.2000        546
 110.3000        540
 110.4000        526
 110.5000        571
 110.6000        534
 110.7000        548
 110.8000        525
 110.9000        555
 111.0000        574
 111.1000        592
 111.2000        578
 111.3000        588
 111.4000        609
 111.5000        539
 111.6000        547
 111.7000        551
 111.8000        536
 111.9000        558
 112.0000        553
 112.1000        590
 112.2000        523
 112.3000        526
 112.4000        530
 112.5000        457
 112.6000        497
 112.7000        491
 112.8000        561
 112.9000        530
 113.0000        519
 113.1000        521
 113.2000        475
 113.3000        562
 113.4000        510
 113.5000        487
 113.6000        505
 113.7000        520
 113.8000        551
 113.9000        501
 114.0000        471
 114.1000        512
 114.2000        473
 114.3000        519
 114.4000        498
 114.5000        478
 114.6000        493
 114.7000        491
 114.8000        507
 114.9000        523
 115.0000        510
 115.1000        519
 115.2000        487
 115.3000        527
 115.4000        527
 115.5000        514
 115.6000        482
 115.7000        557
 115.8000        515
 115.9000        481
 116.0000        528
 116.1000        544
 116.2000        476
 116.3000        497
 116.4000        468
 116.5000        528
 116.6000        513
 116.7000        538
 116.8000        535
 116.9000        511
 117.0000        520
 117.1000        531
 117.2000        488
 117.3000        517
 117.4000        553
 117.5000        504
 117.6000        525
 117.7000        533
 117.8000        477
 117.9000        503
 118.0000        512
 118.1000        509
 118.2000        493
 118.3000        495
 118.4000        490
 118.5000        509
 118.6000        536
 118.7000        476
 118.8000        527
 118.9000        521
 119.0000        539
 119.1000        518
 119.2000        551
 119.3000        536
 119.4000        517
 119.5000        490
 119.6000        502
 119.7000        523
 119.8000        476
 119.9000        506
 120.0000        522
 120.1000        533
 120.2000        465
 120.3000        532
 120.4000        498
 120.5000        520
 120.6000        496
 120.7000        476
 120.8000        486
 120.9000        560
 121.0000        499
 121.1000        500
 121.2000        495
 121.3000        519
 121.4000        515
 121.5000        497
 121.6000        497
 121.7000        495
 121.8000        523
 121.9000        473
 122.0000        511
 122.1000        515
 122.2000        518
 122.3000        526
 122.4000        518
 122.5000        515
 122.6000        529
 122.7000        516
 122.8000        554
 122.9000        517
 123.0000        526
 123.1000        585
 123.2000        539
 123.3000        544
 123.4000        516
 123.5000        533
 123.6000        577
 123.7000        577
 123.8000        514
 123.9000        573
 124.0000        543
 124.1000        536
 124.2000        522
 124.3000        504
 124.4000        531
 124.5000        481
 124.6000        515
 124.7000        510
 124.8000        511
 124.9000        524
 125.0000        493
 125.1000        506
 125.2000        525
 125.3000        521
 125.4000        515
 125.5000        524
 125.6000        502
 125.7000        531
 125.8000        529
 125.9000        504
 126.0000        518
 126.1000        503
 126.2000        517
 126.3000        525
 126.4000        507
 126.5000        513
 126.6000        535
 126.7000        520
 126.8000        553
 126.9000        489
 127.0000        495
 127.1000        492
 127.2000        497
 127.3000        525
 127.4000        498
 127.5000        541
 127.6000        522
[...]
 129.1000        381
 129.2000        427
 129.3000        394
 129.4000        424
 129.5000        406
 129.6000        404
 129.7000        373
 129.8000        369
 129.9000        424
 130.0000        399

; Data for range 53
_DRIVE = COUPLED
_STEPTIME = 0.2
_STEPSIZE = 0.1
_STEPMODE = C
_START = 40
_THETA = 20
_2THETA = 40
_KHI = 80
_PHI = 0
_X = 0
_Y = 25
_Z = 0
_DETECTOR = 1
; Detector type : Scintillation counter
_HV = 687
_GAIN = 80
_LLD = 0.69
_ULD = 1.866
_DETECTORSLIT = unkn
_AUX1 = 0
_AUX2 = 0
_AUX3 = 0
_TIMESTARTED = 1.03e+004
_TEMP_RATE = -1
_TEMP_DELAY = -1
_KV = 35
_MA = 40
_RANGE_WL = 1.78897
_3DPLANE = 0
_V4_ADDITIONALDETECTOR = 0
_V4_D8_DIBNUM = 1
_V4_DETECTORNAME = "Detector 1"
_V4_TTLDETECTOR = None
_V4_DETECTORTYPE = 1
_V4_DETECTORFLAGS = 524545
_V4_DETECTORHV = 687
_V4_DETECTORGAIN = 80
_V4_DETECTORLLD1 = 0.69
_V4_DETECTORWW1 = 1.176
_V4_DETECTORLLD2 = 0
_V4_DETECTORWW2 = 0
_V4_DETECTORPS = 0
_V4_DETECTORDT = 0
_V4_DETECTORPILEUPTIME = 0
_V4_COUNTERS_MASK = 1
_V4_DRIVES_MASK = 0
_V4_ENCODERS_MASK = 0
_2THETACOUNTS = 1
; 2THETA  Cnt1_D1
  40.0000        139
  40.1000        150
  40.2000        162
  40.3000        164
  40.4000        157
  40.5000        151
  40.6000        134
  40.7000        144
  40.8000        147
  40.9000        156
  41.0000        137
  41.1000        152
  41.2000        138
  41.3000        139
  41.4000        172
  41.5000        151
  41.6000        144
  41.7000        148
  41.8000        138
  41.9000        151
  42.0000        147
  42.1000        170
  42.2000        152
  42.3000        169
  42.4000        171
  42.5000        171
  42.6000        194
  42.7000        206
  42.8000        236
  42.9000        246
  43.0000        238
  43.1000        229
  43.2000        250
  43.3000        242
  43.4000        216
  43.5000        207
  43.6000        230
  43.7000        200
  43.8000        195
  43.9000        191
  44.0000        171
  44.1000        203
  44.2000        159
  44.3000        180
  44.4000        179
  44.5000        185
  44.6000        152
  44.7000        153
  44.8000        170
  44.9000        161
  45.0000        153
  45.1000        181
  45.2000        167
  45.3000        190
  45.4000        150
  45.5000        160
  45.6000        164
  45.7000        178
  45.8000        187
  45.9000        165
  46.0000        151
  46.1000        164
  46.2000        164
  46.3000        155
  46.4000        159
  46.5000        163
  46.6000        165
  46.7000        154
  46.8000        141
  46.9000        154
  47.0000        186
  47.1000        163
  47.2000        170
  47.3000        168
  47.4000        177
  47.5000        166
  47.6000        177
  47.7000        163
  47.8000        167
  47.9000        175
  48.0000        170
  48.1000        192
  48.2000        165
  48.3000        156
  48.4000        174
  48.5000        163
  48.6000        160
  48.7000        172
  48.8000        157
  48.9000        194
  49.0000        128
  49.1000        180
  49.2000        162
  49.3000        156
  49.4000        180
  49.5000        192
  49.6000        171
  49.7000        212
  49.8000        230
  49.9000        207
  50.0000        222
  50.1000        252
  50.2000        254
  50.3000        233
  50.4000        258
  50.5000        280
  50.6000        297
  50.7000        286
  50.8000        344
  50.9000        338
  51.0000        315
  51.1000        336
  51.2000        347
  51.3000        331
  51.4000        335
  51.5000        367
  51.6000        364
  51.7000        388
  51.8000        423
  51.9000        472
  52.0000        555
  52.1000        532
  52.2000        570
  52.3000        559
  52.4000        591
  52.5000        584
  52.6000        555
  52.7000        556
  52.8000        518
  52.9000        493
  53.0000        429
  53.1000        373
  53.2000        352
  53.3000        327
  53.4000        291
  53.5000        260
  53.6000        235
  53.7000        206
  53.8000        208
  53.9000        191
  54.0000        221
  54.1000        174
  54.2000        211
  54.3000        187
  54.4000        206
  54.5000        202
  54.6000        217
  54.7000        180
  54.8000        185
  54.9000        187
  55.0000        196
  55.1000        196
  55.2000        206
  55.3000        197
  55.4000        204
  55.5000        185
  55.6000        204
  55.7000        194
  55.8000        167
  55.9000        216
  56.0000        188
  56.1000        202
  56.2000        210
  56.3000        199
  56.4000        197
  56.5000        217
  56.6000        201
  56.7000        207
  56.8000        199
  56.9000        210
  57.0000        207
  57.1000        189
  57.2000        210
  57.3000        204
  57.4000        194
  57.5000        237
  57.6000        185
  57.7000        188
  57.8000        186
  57.9000        225
  58.0000        204
  58.1000        199
  58.2000        200
  58.3000        214
  58.4000        210
  58.5000        206
  58.6000        214
  58.7000        232
  58.8000        201
  58.9000        224
  59.0000        235
  59.1000        235
  59.2000        201
  59.3000        239
  59.4000        215
  59.5000        251
  59.6000        207
  59.7000        254
  59.8000        241
  59.9000        222
  60.0000        237
  60.1000        232
  60.2000        238
  60.3000        210
  60.4000        220
  60.5000        214
  60.6000        243
  60.7000        217
  60.8000        210
  60.9000        198
  61.0000        203
  61.1000        222
  61.2000        188
  61.3000        238
  61.4000        220
  61.5000        261
  61.6000        186
  61.7000        215
  61.8000        200
  61.9000        208
  62.0000        236
  62.1000        229
  62.2000        197
  62.3000        210
  62.4000        224
  62.5000        257
  62.6000        207
  62.7000        236
  62.8000        203
  62.9000        239
  63.0000        227
  63.1000        183
  63.2000        197
  63.3000        224
  63.4000        217
  63.5000        212
  63.6000        243
  63.7000        239
  63.8000        191
  63.9000        196
  64.0000        203
  64.1000        193
  64.2000        223
  64.3000        209
  64.4000        234
  64.5000        245
  64.6000        227
  64.7000        225
  64.8000        218
  64.9000        225
  65.0000        226
  65.1000        224
  65.2000        237
  65.3000        239
  65.4000        189
  65.5000        246
  65.6000        225
  65.7000        220
  65.8000        237
  65.9000        224
  66.0000        244
  66.1000        250
  66.2000        222
  66.3000        205
  66.4000        258
  66.5000        221
  66.6000        240
  66.7000        238
  66.8000        220
  66.9000        211
  67.0000        226
  67.1000        240
  67.2000        244
  67.3000        211
  67.4000        255
  67.5000        231
  67.6000        230
  67.7000        230
  67.8000        266
  67.9000        209
  68.0000        241
  68.1000        222
  68.2000        231
  68.3000        237
  68.4000        236
  68.5000        224
  68.6000        235
  68.7000        247
  68.8000        231
  68.9000        248
  69.0000        235
  69.1000        272
  69.2000        254
  69.3000        259
  69.4000        223
  69.5000        253
  69.6000        262
  69.7000        227
  69.8000        219
  69.9000        249
  70.0000        250
  70.1000        256
  70.2000        253
  70.3000        242
  70.4000        232
  70.5000        258
  70.6000        242
  70.7000        235
  70.8000        217
  70.9000        228
  71.0000        230
  71.1000        245
  71.2000        226
  71.3000        228
  71.4000        253
  71.5000        245
  71.6000        224
  71.7000        224
  71.8000        257
  71.9000        247
  72.0000        246
  72.1000        230
  72.2000        229
  72.3000        265
  72.4000        235
  72.5000        229
  72.6000        233
  72.7000        250
  72.8000        218
  72.9000        237
  73.0000        242
  73.1000        226
  73.2000        247
  73.3000        250
  73.4000        247
  73.5000        233
  73.6000        237
  73.7000        257
  73.8000        236
  73.9000        274
  74.0000        231
  74.1000        253
  74.2000        228
  74.3000        259
  74.4000        269
  74.5000        264
  74.6000        255
  74.7000        245
  74.8000        259
  74.9000        267
  75.0000        248
  75.1000        240
  75.2000        231
  75.3000        255
  75.4000        259
  75.5000        211
  75.6000        261
  75.7000        266
  75.8000        261
  75.9000        269
  76.0000        247
  76.1000        252
  76.2000        259
  76.3000        274
  76.4000        274
  76.5000        284
  76.6000        277
  76.7000        283
  76.8000        282
  76.9000        316
  77.0000        287
  77.1000        297
  77.2000        285
  77.3000        271
  77.4000        289
  77.5000        279
  77.6000        331
  77.7000        294
  77.8000        293
  77.9000        272
  78.0000        269
  78.1000        284
  78.2000        263
  78.3000        268
  78.4000        290
  78.5000        239
  78.6000        251
  78.7000        267
  78.8000        245
  78.9000        255
  79.0000        252
  79.1000        260
  79.2000        253
  79.3000        259
  79.4000        276
  79.5000        235
  79.6000        273
  79.7000        265
  79.8000        253
  79.9000        256
  80.0000        271
  80.1000        279
  80.2000        288
  80.3000        265
  80.4000        282
  80.5000        256
  80.6000        255
  80.7000        263
  80.8000        272
  80.9000        251
  81.0000        283
  81.1000        241
  81.2000        281
  81.3000        270
  81.4000        269
  81.5000        249
  81.6000        283
  81.7000        267
  81.8000        266
  81.9000        283
  82.0000        286
  82.1000        287
  82.2000        273
  82.3000        264
  82.4000        271
  82.5000        262
  82.6000        287
  82.7000        250
  82.8000        310
  82.9000        281
  83.0000        277
  83.1000        283
  83.2000        262
  83.3000        252
  83.4000        284
  83.5000        283
  83.6000        259
  83.7000        278
  83.8000        257
  83.9000        293
  84.0000        263
  84.1000        276
  84.2000        288
  84.3000        284
  84.4000        282
  84.5000        293
  84.6000        247
  84.7000        273
  84.8000        274
  84.9000        277
  85.0000        268
  85.1000        269
  85.2000        283
  85.3000        270
  85.4000        258
  85.5000        261
  85.6000        288
  85.7000        270
  85.8000        247
  85.9000        289
  86.0000        283
  86.1000        320
  86.2000        295
  86.3000        267
  86.4000        291
  86.5000        287
  86.6000        302
  86.7000        310
  86.8000        283
  86.9000        289
  87.0000        281
  87.1000        274
  87.2000        280
  87.3000        261
  87.4000        280
  87.5000        304
  87.6000        302
  87.7000        270
  87.8000        302
  87.9000        285
  88.0000        274
  88.1000        302
  88.2000        301
  88.3000        275
  88.4000        287
  88.5000        278
  88.6000        294
  88.7000        345
  88.8000        311
  88.9000        296
  89.0000        299
  89.1000        314
  89.2000        278
  89.3000        321
  89.4000        324
  89.5000        298
  89.6000        267
  89.7000        304
  89.8000        318
  89.9000        292
  90.0000        316
  90.1000        320
  90.2000        286
  90.3000        309
  90.4000        293
  90.5000        304
  90.6000        293
  90.7000        305
  90.8000        307
  90.9000        331
  91.0000        317
  91.1000        313
  91.2000        310
  91.3000        296
  91.4000        297
  91.5000        300
  91.6000        336
  91.7000        302
  91.8000        321
  91.9000        297
  92.0000        314
  92.1000        282
  92.2000        300
  92.3000        334
  92.4000        339
  92.5000        318
  92.6000        278
  92.7000        326
  92.8000        280
  92.9000        318
  93.0000        298
  93.1000        308
  93.2000        300
  93.3000        299
  93.4000        255
  93.5000        302
  93.6000        316
  93.7000        283
  93.8000        309
  93.9000        330
  94.0000        315
  94.1000        312
  94.2000        280
  94.3000        295
  94.4000        316
  94.5000        339
  94.6000        289
  94.7000        307
  94.8000        334
  94.9000        296
  95.0000        299
  95.1000        324
  95.2000        334
  95.3000        308
  95.4000        286
  95.5000        338
  95.6000        299
  95.7000        307
  95.8000        320
  95.9000        355
  96.0000        305
  96.1000        304
  96.2000        366
  96.3000        307
  96.4000        324
  96.5000        341
  96.6000        333
  96.7000        366
  96.8000        333
  96.9000        312
  97.0000        287
  97.1000        294
  97.2000        341
  97.3000        290
  97.4000        351
  97.5000        340
  97.6000        313
  97.7000        350
  97.8000        337
  97.9000        335
  98.0000        349
  98.1000        383
  98.2000        360
  98.3000        365
  98.4000        380
  98.5000        380
  98.6000        425
  98.7000        412
  98.8000        445
  98.9000        470
  99.0000        440
  99.1000        440
  99.2000        490
  99.3000        487
  99.4000        459
  99.5000        478
  99.6000        457
  99.7000        428
  99.8000        474
  99.9000        474
 100.0000        500
 100.1000        418
 100.2000        402
 100.3000        413
 100.4000        383
 100.5000        388
 100.6000        394
 100.7000        343
 100.8000        337
 100.9000        353
 101.0000        337
 101.1000        352
 101.2000        378
 101.3000        357
 101.4000        357
 101.5000        365
 101.6000        331
 101.7000        361
 101.8000        341
 101.9000        303
 102.0000        364
 102.1000        352
 102.2000        376
 102.3000        375
 102.4000        379
 102.5000        336
 102.6000        376
 102.7000        354
 102.8000        308
 102.9000        351
 103.0000        349
 103.1000        365
 103.2000        350
 103.3000        356
 103.4000        331
 103.5000        371
 103.6000        360
 103.7000        369
 103.8000        341
 103.9000        351
 104.0000        347
 104.1000        362
 104.2000        370
 104.3000        342
 104.4000        362
 104.5000        339
 104.6000        357
 104.7000        369
 104.8000        369
 104.9000        322
 105.0000        338
 105.1000        368
 105.2000        358
 105.3000        359
 105.4000        394
 105.5000        393
 105.6000        351
 105.7000        368
 105.8000        327
 105.9000        350
 106.0000        360
 106.1000        363
 106.2000        406
 106.3000        360
 106.4000        399
 106.5000        410
 106.6000        415
 106.7000        390
 106.8000        378
 106.9000        390
 107.0000        361
 107.1000        342
 107.2000        391
 107.3000        370
 107.4000        401
 107.5000        372
 107.6000        380
 107.7000        355
 107.8000        382
 107.9000        388
 108.0000        375
 108.1000        382
 108.2000        373
 108.3000        394
 108.4000        388
 108.5000        379
 108.6000        373
 108.7000        338
 108.8000        364
 108.9000        364
 109.0000        414
 109.1000        379
 109.2000        377
 109.3000        397
 109.4000        395
 109.5000        409
 109.6000        416
 109.7000        364
 109.8000        386
 109.9000        383
 110.0000        383
 110.1000        344
 110.2000        402
 110.3000        373
 110.4000        398
 110.5000        389
 110.6000        415
 110.7000        399
 110.8000        384
 110.9000        439
 111.0000        354
 111.1000        376
 111.2000        385
 111.3000        377
 111.4000        387
 111.5000        405
 111.6000        412
 111.7000        368
 111.8000        405
 111.9000        384
 112.0000        359
 112.1000        412
 112.2000        399
 112.3000        349
 112.4000        368
 112.5000        372
 112.6000        358
 112.7000        358
 112.8000        374
 112.9000        355
 113.0000        374
 113.1000        367
 113.2000        385
 113.3000        345
 113.4000        405
 113.5000        402
 113.6000        383
 113.7000        362
 113.8000        407
 113.9000        386
 114.0000        359
 114.1000        349
 114.2000        324
 114.3000        402
 114.4000        380
 114.5000        400
 114.6000        384
 114.7000        392
 114.8000        403
 114.9000        396
 115.0000        380
 115.1000        354
 115.2000        417
 115.3000        414
 115.4000        390
 115.5000        418
 115.6000        377
 115.7000        383
 115.8000        364
 115.9000        401
 116.0000        349
 116.1000        363
 116.2000        410
 116.3000        381
 116.4000        391
 116.5000        382
 116.6000        382
 116.7000        366
 116.8000        371
 116.9000        379
 117.0000        379
 117.1000        380
 117.2000        373
 117.3000        393
 117.4000        400
 117.5000        412
 117.6000        384
 117.7000        369
 117.8000        381
 117.9000        366
 118.0000        412
 118.1000        357
 118.2000        418
 118.3000        416
 118.4000        400
 118.5000        387
 118.6000        424
 118.7000        427
 118.8000        407
 118.9000        416
 119.0000        391
 119.1000        413
 119.2000        417
 119.3000        410
 119.4000        404
 119.5000        415
 119.6000        404
 119.7000        393
 119.8000        431
 119.9000        387
 120.0000        391
 120.1000        394
 120.2000        426
 120.3000        393
 120.4000        403
 120.5000        388
 120.6000        383
 120.7000        393
 120.8000        348
 120.9000        392
 121.0000        407
 121.1000        392
 121.2000        412
 121.3000        383
 121.4000        394
 121.5000        413
 121.6000        410
 121.7000        429
 121.8000        434
 121.9000        414
 122.0000        437
 122.1000        427
 122.2000        406
 122.3000        410
 122.4000        470
 122.5000        428
 122.6000        487
 122.7000        447
 122.8000        449
 122.9000        464
 123.0000        484
 123.1000        469
 123.2000        456
 123.3000        504
 123.4000        471
 123.5000        501
 123.6000        463
 123.7000        513
 123.8000        448
 123.9000        492
 124.0000        501
 124.1000        483
 124.2000        439
 124.3000        430
 124.4000        445
 124.5000        398
 124.6000        431
 124.7000        410
 124.8000        424
 124.9000        419
 125.0000        421
 125.1000        405
 125.2000        397
 125.3000        423
 125.4000        413
 125.5000        377
 125.6000        422
 125.7000        401
 125.8000        375
 125.9000        420
 126.0000        416
 126.1000        370
 126.2000        404
 126.3000        411
 126.4000        441
 126.5000        393
 126.6000        428
 126.7000        400
 126.8000        381
 126.9000        415
 127.0000        403
 127.1000        405
 127.2000        426
 127.3000        361
 127.4000        415
 127.5000        386
 127.6000        393
 127.7000        401
 127.8000        432
 127.9000        390
 128.0000        378
 128.1000        409
 128.2000        407
 128.3000        393
 128.4000        374
 128.5000        411
 128.6000        404
 128.7000        350
 128.8000        364
 128.9000        403
 129.0000        426
 129.1000        388
 129.2000        372
 129.3000        396
 129.4000        407
 129.5000        395
 129.6000        362
 129.7000        408
 129.8000        410
 129.9000        381
 130.0000        413