File: exp_dat/old/exp_2013_11_11/04pct_100L.uxd
; (content of file C:\DIFFDAT1\GIFT\MDL\Seawoong Lee\20131104_MV8\equal_area_maxkhi080_n8_2th40_130_x25y25_100L.raw)
_FILEVERSION = 3
_SAMPLE =
_+SAMPLE =
_SITE = Korea
_USER = Admin
_GONIOMETER_CODE = 20
; Goniometer : D8 theta/2theta, stage : Unknown
_SAMPLE_CHANGER_CODE = 0
_ATTACHMENTS_CODE = 0
_GONIOMETER_RADIUS = 300
_FIXED_DIVSLIT = 1
_FIXED_SAMPLESLIT = 0
_SOLLER_SLITS = 2
_FIXED_DETSLIT = 0.1
_MONOCHROMATOR = 0
; Incident beam monochromator : None
_SOLLER_SLITS_2 = 2
_THIN_FILM = N
_BETA_FILTER = Y
_FIXED_ANTISLIT = 0.6
_ANALYZER_CODE = 0
; Received beam analyzer : None
_DATEMEASURED = "05-Nov-2013 18:58:38"
_WL_UNIT = A
_WL1 = 1.78897
_WL2 = 1.79285
_WL3 = 1.62079
_WLRATIO = 0.5
_ANODE = Co
_V4_INF_CREATOR = XRDWizard
_V4_INF_CREATOR_VERSION = V2.9.0.22
_V4_INF_WIZARD_VERSION = V2.9.0.22
_V4_INF_WIZARD_ADDINS = V2.9.0.22
_V4_INF_WIZARD_DOCTYPE = XRD
_V4_INF_OSUSER = Postech
_V4_INF_USER = Admin
_V4_INF_SITE = Korea

; Data for range 1
_DRIVE = COUPLED
_STEPTIME = 0.2
_STEPSIZE = 0.1
_STEPMODE = C
_START = 40
_THETA = 20
_2THETA = 40
_KHI = 0
_PHI = 0
_X = 25
_Y = 25
_Z = 0
_DETECTOR = 1
; Detector type : Scintillation counter
_HV = 687
_GAIN = 80
_LLD = 0.69
_ULD = 1.866
_DETECTORSLIT = unkn
_AUX1 = 0
_AUX2 = 0
_AUX3 = 0
_TIMESTARTED = 28
_TEMP_RATE = -1
_TEMP_DELAY = -1
_KV = 35
_MA = 40
_RANGE_WL = 1.78897
_3DPLANE = 0
_V4_ADDITIONALDETECTOR = 0
_V4_D8_DIBNUM = 1
_V4_DETECTORNAME = "Detector 1"
_V4_TTLDETECTOR = None
_V4_DETECTORTYPE = 1
_V4_DETECTORFLAGS = 524545
_V4_DETECTORHV = 687
_V4_DETECTORGAIN = 80
_V4_DETECTORLLD1 = 0.69
_V4_DETECTORWW1 = 1.176
_V4_DETECTORLLD2 = 0
_V4_DETECTORWW2 = 0
_V4_DETECTORPS = 0
_V4_DETECTORDT = 0
_V4_DETECTORPILEUPTIME = 0
_V4_COUNTERS_MASK = 1
_V4_DRIVES_MASK = 0
_V4_ENCODERS_MASK = 0
_2THETACOUNTS = 1
; 2THETA  Cnt1_D1
  40.0000        439
  40.1000        417
  40.2000        450
  40.3000        475
  40.4000        417
  40.5000        499
  40.6000        446
  40.7000        425
  40.8000        414
  40.9000        497
  41.0000        461
  41.1000        431
  41.2000        449
  41.3000        446
  41.4000        434
  41.5000        453
  41.6000        441
  41.7000        437
  41.8000        447
  41.9000        491
  42.0000        468
  42.1000        456
  42.2000        452
  42.3000        489
  42.4000        467
  42.5000        468
  42.6000        458
  42.7000        437
  42.8000        452
  42.9000        469
  43.0000        471
  43.1000        452
  43.2000        504
  43.3000        469
  43.4000        460
  43.5000        437
  43.6000        456
  43.7000        468
  43.8000        436
  43.9000        449
  44.0000        461
  44.1000        494
  44.2000        458
  44.3000        439
  44.4000        455
  44.5000        539
  44.6000        480
  44.7000        451
  44.8000        442
  44.9000        465
  45.0000        470
  45.1000        496
  45.2000        469
  45.3000        455
  45.4000        479
  45.5000        491
  45.6000        453
  45.7000        447
  45.8000        500
  45.9000        504
  46.0000        475
  46.1000        472
  46.2000        447
  46.3000        435
  46.4000        476
  46.5000        477
  46.6000        482
  46.7000        487
  46.8000        456
  46.9000        456
  47.0000        445
  47.1000        479
  47.2000        454
  47.3000        449
  47.4000        466
  47.5000        510
  47.6000        476
  47.7000        498
  47.8000        466
  47.9000        481
  48.0000        506
  48.1000        474
  48.2000        490
  48.3000        515
  48.4000        476
  48.5000        487
  48.6000        514
  48.7000        484
  48.8000        502
  48.9000        491
  49.0000        506
  49.1000        462
  49.2000        509
  49.3000        488
  49.4000        495
  49.5000        530
  49.6000        459
  49.7000        502
  49.8000        520
  49.9000        518
  50.0000        545
  50.1000        522
  50.2000        485
  50.3000        507
  50.4000        532
  50.5000        528
  50.6000        596
  50.7000        588
  50.8000        604
  50.9000        627
  51.0000        556
  51.1000        571
  51.2000        600
  51.3000        557
  51.4000        569
  51.5000        587
  51.6000        731
  51.7000        911
  51.8000       1229
  51.9000       1420
  52.0000       1595
  52.1000       1753
  52.2000       1733
  52.3000       1585
  52.4000       1423
  52.5000       1201
  52.6000        921
  52.7000        689
  52.8000        607
  52.9000        514
  53.0000        492
  53.1000        522
  53.2000        453
  53.3000        546
  53.4000        518
  53.5000        504
  53.6000        524
  53.7000        491
  53.8000        476
  53.9000        525
  54.0000        484
  54.1000        521
  54.2000        492
  54.3000        503
  54.4000        519
  54.5000        505
  54.6000        515
  54.7000        515
  54.8000        499
  54.9000        533
  55.0000        506
  55.1000        506
  55.2000        526
  55.3000        498
  55.4000        507
  55.5000        498
  55.6000        562
  55.7000        553
  55.8000        495
  55.9000        509
  56.0000        506
  56.1000        514
  56.2000        508
  56.3000        515
  56.4000        497
  56.5000        520
  56.6000        528
  56.7000        512
  56.8000        466
  56.9000        502
  57.0000        458
  57.1000        534
  57.2000        527
  57.3000        513
  57.4000        506
  57.5000        478
  57.6000        520
  57.7000        490
  57.8000        507
  57.9000        494
  58.0000        510
  58.1000        544
  58.2000        481
  58.3000        494
  58.4000        497
  58.5000        501
  58.6000        514
  58.7000        491
  58.8000        470
  58.9000        529
  59.0000        547
  59.1000        568
  59.2000        521
  59.3000        565
  59.4000        560
  59.5000        580
  59.6000        569
  59.7000        540
  59.8000        541
  59.9000        534
  60.0000        518
  60.1000        513
  60.2000        528
  60.3000        499
  60.4000        512
  60.5000        513
  60.6000        475
  60.7000        510
  60.8000        509
  60.9000        464
  61.0000        504
  61.1000        495
  61.2000        477
  61.3000        522
  61.4000        445
  61.5000        435
  61.6000        486
  61.7000        483
  61.8000        510
  61.9000        491
  62.0000        527
  62.1000        535
  62.2000        494
  62.3000        490
  62.4000        519
  62.5000        518
  62.6000        514
  62.7000        510
  62.8000        480
  62.9000        503
  63.0000        475
  63.1000        461
  63.2000        516
  63.3000        546
  63.4000        525
  63.5000        534
  63.6000        498
  63.7000        505
  63.8000        527
  63.9000        506
  64.0000        531
  64.1000        528
  64.2000        483
  64.3000        484
  64.4000        524
  64.5000        473
  64.6000        483
  64.7000        539
  64.8000        515
  64.9000        504
  65.0000        479
  65.1000        533
  65.2000        473
  65.3000        494
  65.4000        514
  65.5000        470
  65.6000        517
  65.7000        502
  65.8000        516
  65.9000        492
  66.0000        469
  66.1000        522
  66.2000        497
  66.3000        583
  66.4000        517
  66.5000        490
  66.6000        526
  66.7000        477
  66.8000        467
  66.9000        532
  67.0000        515
  67.1000        488
  67.2000        492
  67.3000        438
  67.4000        487
  67.5000        520
  67.6000        515
  67.7000        492
  67.8000        516
  67.9000        508
  68.0000        479
  68.1000        537
  68.2000        527
  68.3000        534
  68.4000        518
  68.5000        475
  68.6000        503
  68.7000        509
  68.8000        480
  68.9000        492
  69.0000        501
  69.1000        514
  69.2000        511
  69.3000        515
  69.4000        498
  69.5000        496
  69.6000        461
  69.7000        531
  69.8000        553
  69.9000        499
  70.0000        498
  70.1000        458
  70.2000        556
  70.3000        478
  70.4000        482
  70.5000        450
  70.6000        476
  70.7000        463
  70.8000        520
  70.9000        501
  71.0000        479
  71.1000        537
  71.2000        496
  71.3000        553
  71.4000        465
  71.5000        473
  71.6000        492
  71.7000        530
  71.8000        513
  71.9000        520
  72.0000        508
  72.1000        481
  72.2000        503
  72.3000        499
  72.4000        471
  72.5000        511
  72.6000        472
  72.7000        532
  72.8000        489
  72.9000        487
  73.0000        485
  73.1000        497
  73.2000        521
  73.3000        549
  73.4000        504
  73.5000        539
  73.6000        513
  73.7000        465
  73.8000        511
  73.9000        555
  74.0000        482
  74.1000        496
  74.2000        544
  74.3000        539
  74.4000        511
  74.5000        532
  74.6000        524
  74.7000        468
  74.8000        527
  74.9000        511
  75.0000        519
  75.1000        453
  75.2000        534
  75.3000        495
  75.4000        512
  75.5000        469
  75.6000        514
  75.7000        525
  75.8000        507
  75.9000        531
  76.0000        550
  76.1000        551
  76.2000        555
  76.3000        608
  76.4000        667
  76.5000        764
  76.6000        823
  76.7000        952
  76.8000        938
  76.9000        849
  77.0000        918
  77.1000        911
  77.2000        828
  77.3000        764
  77.4000        699
  77.5000        640
  77.6000        579
  77.7000        544
  77.8000        516
  77.9000        545
  78.0000        532
  78.1000        495
  78.2000        520
  78.3000        478
  78.4000        502
  78.5000        541
  78.6000        523
  78.7000        499
  78.8000        527
  78.9000        495
  79.0000        485
  79.1000        525
  79.2000        497
  79.3000        513
  79.4000        506
  79.5000        535
  79.6000        461
  79.7000        475
  79.8000        552
  79.9000        515
  80.0000        464
  80.1000        524
  80.2000        499
  80.3000        506
  80.4000        476
  80.5000        482
  80.6000        553
  80.7000        494
  80.8000        532
  80.9000        493
  81.0000        521
  81.1000        512
  81.2000        491
  81.3000        485
  81.4000        535
  81.5000        513
  81.6000        506
  81.7000        502
  81.8000        530
  81.9000        525
  82.0000        497
  82.1000        527
  82.2000        522
  82.3000        529
  82.4000        487
  82.5000        503
  82.6000        519
  82.7000        508
  82.8000        474
  82.9000        530
  83.0000        528
  83.1000        556
  83.2000        469
  83.3000        509
  83.4000        517
  83.5000        496
  83.6000        537
  83.7000        528
  83.8000        484
  83.9000        508
  84.0000        483
  84.1000        523
  84.2000        527
  84.3000        533
  84.4000        480
  84.5000        504
  84.6000        527
  84.7000        514
  84.8000        520
  84.9000        552
  85.0000        504
  85.1000        508
  85.2000        508
  85.3000        474
  85.4000        569
  85.5000        476
  85.6000        497
  85.7000        520
  85.8000        484
  85.9000        484
  86.0000        503
  86.1000        516
  86.2000        506
  86.3000        478
  86.4000        504
  86.5000        552
  86.6000        490
  86.7000        486
  86.8000        455
  86.9000        523
  87.0000        506
  87.1000        502
  87.2000        495
  87.3000        509
  87.4000        486
  87.5000        516
  87.6000        494
  87.7000        513
  87.8000        482
  87.9000        491
  88.0000        497
  88.1000        534
  88.2000        536
  88.3000        476
  88.4000        485
  88.5000        520
  88.6000        529
  88.7000        595
  88.8000        610
  88.9000        661
  89.0000        716
  89.1000        775
  89.2000        718
  89.3000        735
  89.4000        754
  89.5000        749
  89.6000        704
  89.7000        672
  89.8000        616
  89.9000        595
  90.0000        546
  90.1000        515
  90.2000        476
  90.3000        505
  90.4000        496
  90.5000        502
  90.6000        534
  90.7000        496
  90.8000        499
  90.9000        494
  91.0000        481
  91.1000        500
  91.2000        590
  91.3000        518
  91.4000        492
  91.5000        526
  91.6000        504
  91.7000        471
  91.8000        497
  91.9000        512
  92.0000        490
  92.1000        477
  92.2000        486
  92.3000        522
  92.4000        514
  92.5000        492
  92.6000        516
  92.7000        514
  92.8000        475
  92.9000        499
  93.0000        509
  93.1000        496
  93.2000        512
  93.3000        529
  93.4000        509
  93.5000        483
  93.6000        566
  93.7000        504
  93.8000        505
  93.9000        485
  94.0000        536
  94.1000        549
  94.2000        483
  94.3000        501
  94.4000        547
  94.5000        487
  94.6000        455
  94.7000        461
  94.8000        509
  94.9000        519
  95.0000        515
  95.1000        482
  95.2000        526
  95.3000        518
  95.4000        515
  95.5000        531
  95.6000        490
  95.7000        511
  95.8000        481
  95.9000        492
  96.0000        503
  96.1000        532
  96.2000        530
  96.3000        535
  96.4000        537
  96.5000        471
  96.6000        529
  96.7000        515
  96.8000        542
  96.9000        508
  97.0000        501
  97.1000        489
  97.2000        539
  97.3000        509
  97.4000        486
  97.5000        545
  97.6000        523
  97.7000        521
  97.8000        510
  97.9000        493
  98.0000        495
  98.1000        510
  98.2000        504
  98.3000        498
  98.4000        548
  98.5000        567
  98.6000        610
  98.7000        658
  98.8000        845
  98.9000        922
  99.0000       1017
  99.1000       1168
  99.2000       1251
  99.3000       1262
  99.4000       1366
  99.5000       1288
  99.6000       1209
  99.7000       1140
  99.8000        911
  99.9000        826
 100.0000        732
 100.1000        649
 100.2000        594
 100.3000        577
 100.4000        506
 100.5000        542
 100.6000        544
 100.7000        521
 100.8000        500
 100.9000        522
 101.0000        535
 101.1000        496
 101.2000        492
 101.3000        539
 101.4000        526
 101.5000        510
 101.6000        487
 101.7000        481
 101.8000        505
 101.9000        497
 102.0000        518
 102.1000        516
 102.2000        498
 102.3000        492
 102.4000        499
 102.5000        533
 102.6000        507
 102.7000        506
 102.8000        467
 102.9000        506
 103.0000        495
 103.1000        518
 103.2000        524
 103.3000        505
 103.4000        504
 103.5000        488
 103.6000        520
 103.7000        509
 103.8000        492
 103.9000        482
 104.0000        524
 104.1000        509
 104.2000        490
 104.3000        530
 104.4000        478
 104.5000        501
 104.6000        437
 104.7000        535
 104.8000        490
 104.9000        489
 105.0000        539
 105.1000        485
 105.2000        488
 105.3000        510
 105.4000        506
 105.5000        510
 105.6000        521
 105.7000        498
 105.8000        504
 105.9000        544
 106.0000        531
 106.1000        503
 106.2000        507
 106.3000        500
 106.4000        477
 106.5000        544
 106.6000        526
 106.7000        479
 106.8000        536
 106.9000        518
 107.0000        501
 107.1000        482
 107.2000        487
 107.3000        473
 107.4000        486
 107.5000        484
 107.6000        489
 107.7000        532
 107.8000        500
 107.9000        476
 108.0000        485
 108.1000        538
 108.2000        497
 108.3000        490
 108.4000        471
 108.5000        504
 108.6000        523
 108.7000        493
 108.8000        529
 108.9000        478
 109.0000        495
 109.1000        511
 109.2000        501
 109.3000        509
 109.4000        534
 109.5000        472
 109.6000        508
 109.7000        478
 109.8000        489
 109.9000        529
 110.0000        523
 110.1000        528
 110.2000        495
 110.3000        496
 110.4000        536
 110.5000        548
 110.6000        554
 110.7000        534
 110.8000        582
 110.9000        620
 111.0000        573
 111.1000        592
 111.2000        654
 111.3000        569
 111.4000        605
 111.5000        557
 111.6000        584
 111.7000        551
 111.8000        534
 111.9000        508
 112.0000        515
 112.1000        528
 112.2000        502
 112.3000        502
 112.4000        503
 112.5000        569
 112.6000        517
 112.7000        557
 112.8000        552
 112.9000        527
 113.0000        526
 113.1000        548
 113.2000        463
 113.3000        507
 113.4000        505
 113.5000        509
 113.6000        485
 113.7000        479
 113.8000        489
 113.9000        480
 114.0000        473
 114.1000        512
 114.2000        547
 114.3000        515
 114.4000        488
 114.5000        477
 114.6000        476
 114.7000        512
 114.8000        494
 114.9000        497
 115.0000        454
 115.1000        524
 115.2000        489
 115.3000        545
 115.4000        481
 115.5000        483
 115.6000        533
 115.7000        525
 115.8000        482
 115.9000        524
 116.0000        516
 116.1000        505
 116.2000        545
 116.3000        557
 116.4000        492
 116.5000        506
 116.6000        522
 116.7000        482
 116.8000        506
 116.9000        536
 117.0000        495
 117.1000        481
 117.2000        517
 117.3000        503
 117.4000        478
 117.5000        486
 117.6000        505
 117.7000        497
 117.8000        509
 117.9000        514
 118.0000        479
 118.1000        557
 118.2000        517
 118.3000        514
 118.4000        501
 118.5000        522
 118.6000        518
 118.7000        512
 118.8000        524
 118.9000        497
 119.0000        499
 119.1000        531
 119.2000        519
 119.3000        494
 119.4000        523
 119.5000        529
 119.6000        468
 119.7000        509
 119.8000        543
 119.9000        492
 120.0000        499
 120.1000        507
 120.2000        523
 120.3000        493
 120.4000        489
 120.5000        510
 120.6000        562
 120.7000        524
 120.8000        489
 120.9000        510
 121.0000        545
 121.1000        504
 121.2000        511
 121.3000        482
 121.4000        491
 121.5000        510
 121.6000        471
 121.7000        545
 121.8000        485
 121.9000        515
 122.0000        493
 122.1000        462
 122.2000        527
 122.3000        502
 122.4000        524
 122.5000        509
 122.6000        510
 122.7000        553
 122.8000        505
 122.9000        580
 123.0000        580
 123.1000        561
 123.2000        603
 123.3000        595
 123.4000        607
 123.5000        638
 123.6000        575
 123.7000        532
 123.8000        587
 123.9000        550
 124.0000        510
 124.1000        517
 124.2000        519
 124.3000        523
 124.4000        525
 124.5000        498
 124.6000        507
 124.7000        537
 124.8000        521
 124.9000        542
 125.0000        538
 125.1000        521
 125.2000        551
 125.3000        529
 125.4000        504
 125.5000        507
 125.6000        533
 125.7000        487
 125.8000        507
 125.9000        500
 126.0000        543
 126.1000        536
 126.2000        562
 126.3000        529
 126.4000        517
 126.5000        529
 126.6000        513
 126.7000        483
 126.8000        507
 126.9000        538
 127.0000        498
 127.1000        475
 127.2000        512
 127.3000        508
 127.4000        477
 127.5000        498
 127.6000        520
 127.7000        499
 127.8000        503
 127.9000        524
 128.0000        519
 128.1000        526
 128.2000        490
 128.3000        512
 128.4000        504
 128.5000        508
 128.6000        508
 128.7000        508
 128.8000        550
 128.9000        526
 129.0000        525
 129.1000        496
 129.2000        464
 129.3000        517
 129.4000        513
 129.5000        533
 129.6000        508
 129.7000        492
 129.8000        444
 129.9000        518
 130.0000        517

; Data for range 2
_DRIVE = COUPLED
_STEPTIME = 0.2
_STEPSIZE = 0.1
_STEPMODE = C
_START = 40
_THETA = 20
_2THETA = 40
_KHI = 10.5
_PHI = 60
_X = 25
_Y = 25
_Z = 0
_DETECTOR = 1
; Detector type : Scintillation counter
_HV = 687
_GAIN = 80
_LLD = 0.69
_ULD = 1.866
_DETECTORSLIT = unkn
_AUX1 = 0
_AUX2 = 0
_AUX3 = 0
_TIMESTARTED = 225
_TEMP_RATE = -1
_TEMP_DELAY = -1
_KV = 35
_MA = 40
_RANGE_WL = 1.78897
_3DPLANE = 0
_V4_ADDITIONALDETECTOR = 0
_V4_D8_DIBNUM = 1
_V4_DETECTORNAME = "Detector 1"
_V4_TTLDETECTOR = None
_V4_DETECTORTYPE = 1
_V4_DETECTORFLAGS = 524545
_V4_DETECTORHV = 687
_V4_DETECTORGAIN = 80
_V4_DETECTORLLD1 = 0.69
_V4_DETECTORWW1 = 1.176
_V4_DETECTORLLD2 = 0
_V4_DETECTORWW2 = 0
_V4_DETECTORPS = 0
_V4_DETECTORDT = 0
_V4_DETECTORPILEUPTIME = 0
_V4_COUNTERS_MASK = 1
_V4_DRIVES_MASK = 0
_V4_ENCODERS_MASK = 0
_2THETACOUNTS = 1
; 2THETA  Cnt1_D1
  40.0000        503
  40.1000        544
  40.2000        496
  40.3000        546
  40.4000        487
  40.5000        514
  40.6000        526
  40.7000        491
  40.8000        495
  40.9000        519
  41.0000        537
  41.1000        530
  41.2000        505
  41.3000        533
  41.4000        535
  41.5000        516
  41.6000        485
  41.7000        522
  41.8000        465
  41.9000        520
  42.0000        523
  42.1000        494
  42.2000        546
  42.3000        581
  42.4000        492
  42.5000        530
  42.6000        563
  42.7000        497
  42.8000        506
  42.9000        513
  43.0000        518
  43.1000        507
  43.2000        526
  43.3000        513
  43.4000        500
  43.5000        546
  43.6000        526
  43.7000        548
  43.8000        472
  43.9000        539
  44.0000        493
  44.1000        507
  44.2000        509
  44.3000        519
  44.4000        506
  44.5000        518
  44.6000        536
  44.7000        496
  44.8000        537
  44.9000        503
  45.0000        477
  45.1000        540
  45.2000        528
  45.3000        517
  45.4000        519
  45.5000        530
  45.6000        521
  45.7000        510
  45.8000        498
  45.9000        461
  46.0000        524
  46.1000        505
  46.2000        494
  46.3000        488
  46.4000        536
  46.5000        503
  46.6000        521
  46.7000        519
  46.8000        471
  46.9000        544
  47.0000        506
  47.1000        512
  47.2000        529
  47.3000        534
  47.4000        526
  47.5000        540
  47.6000        535
  47.7000        488
  47.8000        545
  47.9000        538
  48.0000        513
  48.1000        489
  48.2000        539
  48.3000        477
  48.4000        492
  48.5000        551
  48.6000        515
  48.7000        554
  48.8000        502
  48.9000        510
  49.0000        514
  49.1000        428
  49.2000        498
  49.3000        525
  49.4000        468
  49.5000        503
  49.6000        532
  49.7000        516
  49.8000        468
  49.9000        531
  50.0000        554
  50.1000        500
  50.2000        479
  50.3000        504
  50.4000        569
  50.5000        592
  50.6000        600
  50.7000        613
  50.8000        654
  50.9000        640
  51.0000        635
  51.1000        641
  51.2000        618
  51.3000        599
  51.4000        586
  51.5000        657
  51.6000        808
  51.7000       1056
  51.8000       1271
  51.9000       1411
  52.0000       1454
  52.1000       1308
  52.2000       1298
  52.3000       1123
  52.4000       1069
  52.5000        991
  52.6000        821
  52.7000        643
  52.8000        596
  52.9000        511
  53.0000        534
  53.1000        541
  53.2000        523
  53.3000        510
  53.4000        520
  53.5000        464
  53.6000        529
  53.7000        467
  53.8000        482
  53.9000        522
  54.0000        561
  54.1000        519
  54.2000        495
  54.3000        503
  54.4000        526
  54.5000        549
  54.6000        516
  54.7000        542
  54.8000        529
  54.9000        512
  55.0000        512
  55.1000        499
  55.2000        513
  55.3000        505
  55.4000        543
  55.5000        517
  55.6000        518
  55.7000        534
  55.8000        499
  55.9000        509
  56.0000        534
  56.1000        529
  56.2000        543
  56.3000        506
  56.4000        467
  56.5000        511
  56.6000        488
  56.7000        544
  56.8000        502
  56.9000        483
  57.0000        524
  57.1000        496
  57.2000        517
  57.3000        496
  57.4000        551
  57.5000        499
  57.6000        503
  57.7000        520
  57.8000        498
  57.9000        505
  58.0000        529
  58.1000        474
  58.2000        486
  58.3000        513
  58.4000        544
  58.5000        541
  58.6000        542
  58.7000        533
  58.8000        519
  58.9000        536
  59.0000        498
  59.1000        573
  59.2000        574
  59.3000        610
  59.4000        604
  59.5000        570
  59.6000        612
  59.7000        579
  59.8000        551
  59.9000        624
  60.0000        531
  60.1000        515
  60.2000        544
  60.3000        518
  60.4000        534
  60.5000        507
  60.6000        507
  60.7000        497
  60.8000        509
  60.9000        503
  61.0000        531
  61.1000        496
  61.2000        485
  61.3000        528
  61.4000        549
  61.5000        501
  61.6000        518
  61.7000        479
  61.8000        507
  61.9000        472
  62.0000        502
  62.1000        512
  62.2000        508
  62.3000        539
  62.4000        483
  62.5000        508
  62.6000        469
  62.7000        494
  62.8000        485
  62.9000        461
  63.0000        505
  63.1000        527
  63.2000        533
  63.3000        509
  63.4000        528
  63.5000        545
  63.6000        513
  63.7000        503
  63.8000        452
  63.9000        496
  64.0000        518
  64.1000        528
  64.2000        531
  64.3000        506
  64.4000        514
  64.5000        510
  64.6000        519
  64.7000        473
  64.8000        544
  64.9000        522
  65.0000        529
  65.1000        517
  65.2000        494
  65.3000        455
  65.4000        541
  65.5000        503
  65.6000        542
  65.7000        491
  65.8000        525
  65.9000        492
  66.0000        542
  66.1000        518
  66.2000        506
  66.3000        518
  66.4000        512
  66.5000        497
  66.6000        524
  66.7000        519
  66.8000        512
  66.9000        529
  67.0000        507
  67.1000        485
  67.2000        537
  67.3000        530
  67.4000        484
  67.5000        507
  67.6000        480
  67.7000        493
  67.8000        456
  67.9000        571
  68.0000        512
  68.1000        500
  68.2000        521
  68.3000        531
  68.4000        455
  68.5000        487
  68.6000        496
  68.7000        473
  68.8000        494
  68.9000        479
  69.0000        510
  69.1000        492
  69.2000        538
  69.3000        481
  69.4000        481
  69.5000        504
  69.6000        515
  69.7000        501
  69.8000        490
  69.9000        512
  70.0000        538
  70.1000        511
  70.2000        486
  70.3000        491
  70.4000        507
  70.5000        468
  70.6000        519
  70.7000        528
  70.8000        523
  70.9000        501
  71.0000        509
  71.1000        534
  71.2000        477
  71.3000        532
  71.4000        520
  71.5000        481
  71.6000        522
  71.7000        508
  71.8000        500
  71.9000        455
  72.0000        530
  72.1000        496
  72.2000        515
  72.3000        528
  72.4000        533
  72.5000        510
  72.6000        450
  72.7000        475
  72.8000        507
  72.9000        487
  73.0000        530
  73.1000        523
  73.2000        484
  73.3000        492
  73.4000        520
  73.5000        495
  73.6000        529
  73.7000        494
  73.8000        514
  73.9000        460
  74.0000        505
  74.1000        525
  74.2000        494
  74.3000        464
  74.4000        480
  74.5000        500
  74.6000        527
  74.7000        519
  74.8000        516
  74.9000        499
  75.0000        496
  75.1000        498
  75.2000        462
  75.3000        495
  75.4000        488
  75.5000        470
  75.6000        505
  75.7000        512
  75.8000        531
  75.9000        541
  76.0000        489
  76.1000        538
  76.2000        539
  76.3000        548
  76.4000        602
  76.5000        710
  76.6000        725
  76.7000        789
  76.8000        776
  76.9000        760
  77.0000        787
  77.1000        803
  77.2000        769
  77.3000        683
  77.4000        685
  77.5000        615
  77.6000        612
  77.7000        509
  77.8000        558
  77.9000        498
  78.0000        517
  78.1000        493
  78.2000        490
  78.3000        469
  78.4000        509
  78.5000        474
  78.6000        493
  78.7000        512
  78.8000        525
  78.9000        471
  79.0000        520
  79.1000        526
  79.2000        508
  79.3000        510
  79.4000        516
  79.5000        491
  79.6000        524
  79.7000        532
  79.8000        502
  79.9000        501
  80.0000        507
  80.1000        480
  80.2000        467
  80.3000        547
  80.4000        542
  80.5000        471
  80.6000        506
  80.7000        543
  80.8000        529
  80.9000        515
  81.0000        503
  81.1000        480
  81.2000        509
  81.3000        512
  81.4000        494
  81.5000        551
  81.6000        493
  81.7000        516
  81.8000        499
  81.9000        532
  82.0000        474
  82.1000        475
  82.2000        532
  82.3000        507
  82.4000        524
  82.5000        512
  82.6000        523
  82.7000        498
  82.8000        511
  82.9000        500
  83.0000        471
  83.1000        497
  83.2000        490
  83.3000        514
  83.4000        486
  83.5000        499
  83.6000        529
  83.7000        532
  83.8000        510
  83.9000        504
  84.0000        545
  84.1000        501
  84.2000        488
  84.3000        489
  84.4000        523
  84.5000        537
  84.6000        543
  84.7000        534
  84.8000        485
  84.9000        497
  85.0000        509
  85.1000        477
  85.2000        535
  85.3000        494
  85.4000        492
  85.5000        498
  85.6000        489
  85.7000        537
  85.8000        483
  85.9000        511
  86.0000        490
  86.1000        518
  86.2000        484
  86.3000        500
  86.4000        494
  86.5000        482
  86.6000        502
  86.7000        490
  86.8000        505
  86.9000        503
  87.0000        545
  87.1000        493
  87.2000        498
  87.3000        537
  87.4000        502
  87.5000        516
  87.6000        519
  87.7000        523
  87.8000        550
  87.9000        582
  88.0000        524
  88.1000        545
  88.2000        501
  88.3000        508
  88.4000        505
  88.5000        533
  88.6000        562
  88.7000        558
  88.8000        591
  88.9000        598
  89.0000        609
  89.1000        651
  89.2000        650
  89.3000        675
  89.4000        679
  89.5000        639
  89.6000        658
  89.7000        582
  89.8000        596
  89.9000        562
  90.0000        582
  90.1000        502
  90.2000        479
  90.3000        481
  90.4000        501
  90.5000        479
  90.6000        547
  90.7000        508
  90.8000        542
  90.9000        486
  91.0000        530
  91.1000        497
  91.2000        510
  91.3000        534
  91.4000        500
  91.5000        495
  91.6000        479
  91.7000        528
  91.8000        475
  91.9000        530
  92.0000        498
  92.1000        485
  92.2000        495
  92.3000        537
  92.4000        493
  92.5000        504
  92.6000        500
  92.7000        489
  92.8000        509
  92.9000        527
  93.0000        509
  93.1000        479
  93.2000        521
  93.3000        522
  93.4000        515
  93.5000        521
  93.6000        466
  93.7000        535
  93.8000        497
  93.9000        474
  94.0000        485
  94.1000        490
  94.2000        511
  94.3000        512
  94.4000        471
  94.5000        457
  94.6000        490
  94.7000        471
  94.8000        500
  94.9000        479
  95.0000        513
  95.1000        507
  95.2000        548
  95.3000        478
  95.4000        514
  95.5000        529
  95.6000        474
  95.7000        506
  95.8000        480
  95.9000        525
  96.0000        456
  96.1000        496
  96.2000        536
  96.3000        481
  96.4000        500
  96.5000        492
  96.6000        491
  96.7000        498
  96.8000        504
  96.9000        525
  97.0000        521
  97.1000        488
  97.2000        521
  97.3000        511
  97.4000        496
  97.5000        479
  97.6000        483
  97.7000        527
  97.8000        501
  97.9000        469
  98.0000        502
  98.1000        501
  98.2000        509
  98.3000        543
  98.4000        490
  98.5000        580
  98.6000        588
  98.7000        700
  98.8000        764
  98.9000        929
  99.0000        940
  99.1000       1073
  99.2000       1137
  99.3000       1182
  99.4000       1205
  99.5000       1178
  99.6000       1096
  99.7000        939
  99.8000        831
  99.9000        737
 100.0000        606
 100.1000        586
 100.2000        557
 100.3000        540
 100.4000        534
 100.5000        533
 100.6000        504
 100.7000        486
 100.8000        528
 100.9000        556
 101.0000        486
 101.1000        565
 101.2000        496
 101.3000        550
 101.4000        482
 101.5000        561
 101.6000        507
 101.7000        469
 101.8000        499
 101.9000        495
 102.0000        568
 102.1000        502
 102.2000        506
 102.3000        487
 102.4000        515
 102.5000        494
 102.6000        562
 102.7000        518
 102.8000        516
 102.9000        448
 103.0000        499
 103.1000        504
 103.2000        478
 103.3000        493
 103.4000        498
 103.5000        516
 103.6000        524
 103.7000        458
 103.8000        454
 103.9000        520
 104.0000        491
 104.1000        503
 104.2000        478
 104.3000        494
 104.4000        501
 104.5000        497
 104.6000        505
 104.7000        470
 104.8000        489
 104.9000        502
 105.0000        521
 105.1000        497
 105.2000        533
 105.3000        496
 105.4000        511
 105.5000        487
 105.6000        507
 105.7000        508
 105.8000        489
 105.9000        494
 106.0000        487
 106.1000        506
 106.2000        528
 106.3000        491
 106.4000        565
 106.5000        466
 106.6000        561
 106.7000        503
 106.8000        502
 106.9000        544
 107.0000        503
 107.1000        495
 107.2000        508
 107.3000        524
 107.4000        510
 107.5000        507
 107.6000        491
 107.7000        527
 107.8000        502
 107.9000        508
 108.0000        520
 108.1000        512
 108.2000        521
 108.3000        504
 108.4000        573
 108.5000        501
 108.6000        525
 108.7000        507
 108.8000        500
 108.9000        524
 109.0000        488
 109.1000        496
 109.2000        531
 109.3000        527
 109.4000        505
 109.5000        493
 109.6000        534
 109.7000        498
 109.8000        520
 109.9000        520
 110.0000        515
 110.1000        524
 110.2000        549
 110.3000        491
 110.4000        580
 110.5000        565
 110.6000        565
 110.7000        563
 110.8000        573
 110.9000        611
 111.0000        551
 111.1000        618
 111.2000        611
 111.3000        565
 111.4000        569
 111.5000        546
 111.6000        602
 111.7000        575
 111.8000        547
 111.9000        553
 112.0000        517
 112.1000        543
 112.2000        483
 112.3000        491
 112.4000        553
 112.5000        515
 112.6000        500
 112.7000        521
 112.8000        539
 112.9000        513
 113.0000        478
 113.1000        475
 113.2000        516
 113.3000        524
 113.4000        504
 113.5000        518
 113.6000        503
 113.7000        528
 113.8000        498
 113.9000        468
 114.0000        479
 114.1000        512
 114.2000        504
 114.3000        501
 114.4000        497
 114.5000        490
 114.6000        527
 114.7000        527
 114.8000        489
 114.9000        517
 115.0000        503
 115.1000        520
 115.2000        477
 115.3000        492
 115.4000        520
 115.5000        473
 115.6000        518
 115.7000        545
 115.8000        508
 115.9000        552
 116.0000        535
 116.1000        528
 116.2000        501
 116.3000        490
 116.4000        527
 116.5000        499
 116.6000        523
 116.7000        476
 116.8000        528
 116.9000        519
 117.0000        493
 117.1000        496
 117.2000        505
 117.3000        518
 117.4000        503
 117.5000        508
 117.6000        516
 117.7000        458
 117.8000        481
 117.9000        546
 118.0000        509
 118.1000        498
 118.2000        522
 118.3000        530
 118.4000        504
 118.5000        537
 118.6000        507
 118.7000        527
 118.8000        533
 118.9000        528
 119.0000        504
 119.1000        511
 119.2000        508
 119.3000        502
 119.4000        498
 119.5000        485
 119.6000        479
 119.7000        507
 119.8000        512
 119.9000        479
 120.0000        479
 120.1000        486
 120.2000        503
 120.3000        500
 120.4000        491
 120.5000        473
 120.6000        533
 120.7000        492
 120.8000        493
 120.9000        535
 121.0000        512
 121.1000        473
 121.2000        521
 121.3000        493
 121.4000        491
 121.5000        522
 121.6000        524
 121.7000        514
 121.8000        478
 121.9000        478
 122.0000        507
 122.1000        527
 122.2000        503
 122.3000        515
 122.4000        508
 122.5000        483
 122.6000        531
 122.7000        537
 122.8000        502
 122.9000        585
 123.0000        560
 123.1000        510
 123.2000        567
 123.3000        572
 123.4000        554
 123.5000        540
 123.6000        560
 123.7000        575
 123.8000        527
 123.9000        512
 124.0000        498
 124.1000        530
 124.2000        526
 124.3000        515
 124.4000        533
 124.5000        553
 124.6000        499
 124.7000        525
 124.8000        516
 124.9000        538
 125.0000        487
 125.1000        483
 125.2000        515
 125.3000        528
 125.4000        488
 125.5000        483
 125.6000        477
 125.7000        561
 125.8000        497
 125.9000        561
 126.0000        497
 126.1000        506
 126.2000        505
 126.3000        515
 126.4000        489
 126.5000        501
 126.6000        527
 126.7000        529
 126.8000        498
 126.9000        485
 127.0000        500
 127.1000        496
 127.2000        460
 127.3000        505
 127.4000        509
 127.5000        498
 127.6000        511
[...]
 129.1000        363
 129.2000        347
 129.3000        374
 129.4000        346
 129.5000        367
 129.6000        356
 129.7000        387
 129.8000        380
 129.9000        332
 130.0000        388

; Data for range 53
_DRIVE = COUPLED
_STEPTIME = 0.2
_STEPSIZE = 0.1
_STEPMODE = C
_START = 40
_THETA = 20
_2THETA = 40
_KHI = 80
_PHI = 0
_X = 25
_Y = 25
_Z = 0
_DETECTOR = 1
; Detector type : Scintillation counter
_HV = 687
_GAIN = 80
_LLD = 0.69
_ULD = 1.866
_DETECTORSLIT = unkn
_AUX1 = 0
_AUX2 = 0
_AUX3 = 0
_TIMESTARTED = 1.03e+004
_TEMP_RATE = -1
_TEMP_DELAY = -1
_KV = 35
_MA = 40
_RANGE_WL = 1.78897
_3DPLANE = 0
_V4_ADDITIONALDETECTOR = 0
_V4_D8_DIBNUM = 1
_V4_DETECTORNAME = "Detector 1"
_V4_TTLDETECTOR = None
_V4_DETECTORTYPE = 1
_V4_DETECTORFLAGS = 524545
_V4_DETECTORHV = 687
_V4_DETECTORGAIN = 80
_V4_DETECTORLLD1 = 0.69
_V4_DETECTORWW1 = 1.176
_V4_DETECTORLLD2 = 0
_V4_DETECTORWW2 = 0
_V4_DETECTORPS = 0
_V4_DETECTORDT = 0
_V4_DETECTORPILEUPTIME = 0
_V4_COUNTERS_MASK = 1
_V4_DRIVES_MASK = 0
_V4_ENCODERS_MASK = 0
_2THETACOUNTS = 1
; 2THETA  Cnt1_D1
  40.0000        154
  40.1000        156
  40.2000        128
  40.3000        144
  40.4000        146
  40.5000        160
  40.6000        143
  40.7000        163
  40.8000        162
  40.9000        138
  41.0000        141
  41.1000        147
  41.2000        154
  41.3000        151
  41.4000        166
  41.5000        173
  41.6000        146
  41.7000        153
  41.8000        150
  41.9000        153
  42.0000        158
  42.1000        162
  42.2000        156
  42.3000        142
  42.4000        194
  42.5000        214
  42.6000        197
  42.7000        222
  42.8000        251
  42.9000        272
  43.0000        267
  43.1000        271
  43.2000        286
  43.3000        241
  43.4000        267
  43.5000        238
  43.6000        259
  43.7000        222
  43.8000        225
  43.9000        222
  44.0000        215
  44.1000        169
  44.2000        161
  44.3000        186
  44.4000        163
  44.5000        162
  44.6000        167
  44.7000        167
  44.8000        142
  44.9000        161
  45.0000        142
  45.1000        167
  45.2000        163
  45.3000        156
  45.4000        169
  45.5000        161
  45.6000        159
  45.7000        184
  45.8000        164
  45.9000        160
  46.0000        161
  46.1000        176
  46.2000        180
  46.3000        147
  46.4000        150
  46.5000        172
  46.6000        190
  46.7000        156
  46.8000        177
  46.9000        158
  47.0000        136
  47.1000        150
  47.2000        157
  47.3000        138
  47.4000        164
  47.5000        150
  47.6000        171
  47.7000        168
  47.8000        173
  47.9000        161
  48.0000        159
  48.1000        144
  48.2000        172
  48.3000        151
  48.4000        185
  48.5000        173
  48.6000        156
  48.7000        183
  48.8000        165
  48.9000        163
  49.0000        206
  49.1000        168
  49.2000        176
  49.3000        155
  49.4000        186
  49.5000        175
  49.6000        199
  49.7000        195
  49.8000        210
  49.9000        217
  50.0000        224
  50.1000        223
  50.2000        228
  50.3000        234
  50.4000        308
  50.5000        277
  50.6000        274
  50.7000        330
  50.8000        345
  50.9000        304
  51.0000        326
  51.1000        365
  51.2000        332
  51.3000        320
  51.4000        356
  51.5000        378
  51.6000        371
  51.7000        395
  51.8000        464
  51.9000        502
  52.0000        592
  52.1000        602
  52.2000        630
  52.3000        616
  52.4000        667
  52.5000        665
  52.6000        614
  52.7000        589
  52.8000        537
  52.9000        456
  53.0000        406
  53.1000        330
  53.2000        328
  53.3000        266
  53.4000        242
  53.5000        201
  53.6000        180
  53.7000        178
  53.8000        178
  53.9000        173
  54.0000        183
  54.1000        196
  54.2000        187
  54.3000        200
  54.4000        191
  54.5000        189
  54.6000        181
  54.7000        196
  54.8000        190
  54.9000        182
  55.0000        178
  55.1000        196
  55.2000        185
  55.3000        183
  55.4000        179
  55.5000        190
  55.6000        214
  55.7000        182
  55.8000        191
  55.9000        191
  56.0000        170
  56.1000        179
  56.2000        186
  56.3000        174
  56.4000        176
  56.5000        185
  56.6000        188
  56.7000        201
  56.8000        184
  56.9000        202
  57.0000        194
  57.1000        214
  57.2000        192
  57.3000        174
  57.4000        187
  57.5000        194
  57.6000        197
  57.7000        170
  57.8000        192
  57.9000        198
  58.0000        204
  58.1000        182
  58.2000        189
  58.3000        176
  58.4000        177
  58.5000        213
  58.6000        232
  58.7000        188
  58.8000        185
  58.9000        218
  59.0000        230
  59.1000        223
  59.2000        202
  59.3000        230
  59.4000        227
  59.5000        232
  59.6000        210
  59.7000        198
  59.8000        228
  59.9000        269
  60.0000        214
  60.1000        201
  60.2000        236
  60.3000        200
  60.4000        185
  60.5000        212
  60.6000        224
  60.7000        178
  60.8000        176
  60.9000        185
  61.0000        198
  61.1000        170
  61.2000        199
  61.3000        211
  61.4000        213
  61.5000        196
  61.6000        171
  61.7000        200
  61.8000        205
  61.9000        201
  62.0000        203
  62.1000        191
  62.2000        206
  62.3000        192
  62.4000        188
  62.5000        207
  62.6000        189
  62.7000        188
  62.8000        197
  62.9000        192
  63.0000        187
  63.1000        205
  63.2000        194
  63.3000        189
  63.4000        211
  63.5000        191
  63.6000        199
  63.7000        196
  63.8000        220
  63.9000        230
  64.0000        234
  64.1000        206
  64.2000        205
  64.3000        168
  64.4000        207
  64.5000        186
  64.6000        193
  64.7000        189
  64.8000        198
  64.9000        224
  65.0000        198
  65.1000        199
  65.2000        179
  65.3000        201
  65.4000        185
  65.5000        225
  65.6000        186
  65.7000        212
  65.8000        203
  65.9000        210
  66.0000        200
  66.1000        213
  66.2000        191
  66.3000        205
  66.4000        205
  66.5000        212
  66.6000        186
  66.7000        201
  66.8000        237
  66.9000        192
  67.0000        239
  67.1000        198
  67.2000        214
  67.3000        207
  67.4000        194
  67.5000        225
  67.6000        186
  67.7000        186
  67.8000        204
  67.9000        180
  68.0000        185
  68.1000        198
  68.2000        214
  68.3000        216
  68.4000        200
  68.5000        209
  68.6000        218
  68.7000        189
  68.8000        213
  68.9000        209
  69.0000        181
  69.1000        211
  69.2000        250
  69.3000        221
  69.4000        215
  69.5000        219
  69.6000        223
  69.7000        195
  69.8000        221
  69.9000        216
  70.0000        201
  70.1000        205
  70.2000        220
  70.3000        200
  70.4000        215
  70.5000        189
  70.6000        231
  70.7000        197
  70.8000        207
  70.9000        206
  71.0000        206
  71.1000        213
  71.2000        223
  71.3000        206
  71.4000        188
  71.5000        212
  71.6000        215
  71.7000        191
  71.8000        220
  71.9000        204
  72.0000        178
  72.1000        209
  72.2000        223
  72.3000        231
  72.4000        207
  72.5000        214
  72.6000        229
  72.7000        185
  72.8000        203
  72.9000        200
  73.0000        195
  73.1000        221
  73.2000        197
  73.3000        218
  73.4000        234
  73.5000        239
  73.6000        210
  73.7000        239
  73.8000        230
  73.9000        204
  74.0000        248
  74.1000        209
  74.2000        212
  74.3000        204
  74.4000        217
  74.5000        243
  74.6000        226
  74.7000        231
  74.8000        239
  74.9000        226
  75.0000        240
  75.1000        238
  75.2000        233
  75.3000        236
  75.4000        248
  75.5000        256
  75.6000        250
  75.7000        225
  75.8000        231
  75.9000        239
  76.0000        215
  76.1000        251
  76.2000        260
  76.3000        240
  76.4000        256
  76.5000        257
  76.6000        222
  76.7000        271
  76.8000        271
  76.9000        273
  77.0000        252
  77.1000        283
  77.2000        288
  77.3000        298
  77.4000        301
  77.5000        276
  77.6000        264
  77.7000        271
  77.8000        260
  77.9000        253
  78.0000        238
  78.1000        233
  78.2000        236
  78.3000        259
  78.4000        221
  78.5000        245
  78.6000        238
  78.7000        242
  78.8000        221
  78.9000        235
  79.0000        212
  79.1000        257
  79.2000        222
  79.3000        209
  79.4000        236
  79.5000        251
  79.6000        223
  79.7000        209
  79.8000        227
  79.9000        236
  80.0000        241
  80.1000        218
  80.2000        230
  80.3000        201
  80.4000        244
  80.5000        218
  80.6000        218
  80.7000        215
  80.8000        247
  80.9000        236
  81.0000        249
  81.1000        239
  81.2000        231
  81.3000        255
  81.4000        236
  81.5000        230
  81.6000        228
  81.7000        232
  81.8000        221
  81.9000        242
  82.0000        248
  82.1000        254
  82.2000        247
  82.3000        228
  82.4000        241
  82.5000        233
  82.6000        250
  82.7000        217
  82.8000        261
  82.9000        234
  83.0000        242
  83.1000        235
  83.2000        232
  83.3000        233
  83.4000        226
  83.5000        202
  83.6000        240
  83.7000        251
  83.8000        251
  83.9000        249
  84.0000        261
  84.1000        220
  84.2000        261
  84.3000        262
  84.4000        259
  84.5000        243
  84.6000        231
  84.7000        273
  84.8000        238
  84.9000        264
  85.0000        254
  85.1000        259
  85.2000        216
  85.3000        255
  85.4000        231
  85.5000        235
  85.6000        259
  85.7000        258
  85.8000        243
  85.9000        248
  86.0000        232
  86.1000        245
  86.2000        261
  86.3000        263
  86.4000        229
  86.5000        242
  86.6000        264
  86.7000        288
  86.8000        220
  86.9000        247
  87.0000        258
  87.1000        266
  87.2000        262
  87.3000        291
  87.4000        304
  87.5000        270
  87.6000        240
  87.7000        265
  87.8000        257
  87.9000        267
  88.0000        245
  88.1000        264
  88.2000        256
  88.3000        234
  88.4000        276
  88.5000        247
  88.6000        289
  88.7000        271
  88.8000        252
  88.9000        272
  89.0000        288
  89.1000        245
  89.2000        265
  89.3000        251
  89.4000        256
  89.5000        269
  89.6000        285
  89.7000        300
  89.8000        252
  89.9000        263
  90.0000        253
  90.1000        278
  90.2000        264
  90.3000        248
  90.4000        235
  90.5000        254
  90.6000        298
  90.7000        291
  90.8000        279
  90.9000        294
  91.0000        268
  91.1000        283
  91.2000        270
  91.3000        305
  91.4000        268
  91.5000        239
  91.6000        263
  91.7000        289
  91.8000        246
  91.9000        284
  92.0000        286
  92.1000        250
  92.2000        262
  92.3000        255
  92.4000        245
  92.5000        271
  92.6000        281
  92.7000        274
  92.8000        271
  92.9000        299
  93.0000        270
  93.1000        234
  93.2000        267
  93.3000        280
  93.4000        299
  93.5000        254
  93.6000        271
  93.7000        271
  93.8000        288
  93.9000        295
  94.0000        265
  94.1000        266
  94.2000        307
  94.3000        286
  94.4000        310
  94.5000        272
  94.6000        263
  94.7000        294
  94.8000        289
  94.9000        253
  95.0000        307
  95.1000        295
  95.2000        281
  95.3000        296
  95.4000        270
  95.5000        268
  95.6000        292
  95.7000        292
  95.8000        321
  95.9000        263
  96.0000        281
  96.1000        283
  96.2000        303
  96.3000        267
  96.4000        290
  96.5000        303
  96.6000        306
  96.7000        305
  96.8000        290
  96.9000        289
  97.0000        292
  97.1000        261
  97.2000        285
  97.3000        307
  97.4000        277
  97.5000        282
  97.6000        268
  97.7000        280
  97.8000        287
  97.9000        292
  98.0000        311
  98.1000        308
  98.2000        316
  98.3000        310
  98.4000        343
  98.5000        344
  98.6000        342
  98.7000        368
  98.8000        362
  98.9000        348
  99.0000        423
  99.1000        384
  99.2000        399
  99.3000        432
  99.4000        441
  99.5000        465
  99.6000        453
  99.7000        431
  99.8000        395
  99.9000        396
 100.0000        370
 100.1000        362
 100.2000        374
 100.3000        334
 100.4000        348
 100.5000        360
 100.6000        307
 100.7000        303
 100.8000        318
 100.9000        322
 101.0000        308
 101.1000        294
 101.2000        299
 101.3000        319
 101.4000        317
 101.5000        279
 101.6000        311
 101.7000        322
 101.8000        319
 101.9000        304
 102.0000        289
 102.1000        277
 102.2000        282
 102.3000        272
 102.4000        298
 102.5000        292
 102.6000        328
 102.7000        320
 102.8000        310
 102.9000        304
 103.0000        310
 103.1000        328
 103.2000        319
 103.3000        335
 103.4000        284
 103.5000        322
 103.6000        316
 103.7000        317
 103.8000        302
 103.9000        321
 104.0000        309
 104.1000        309
 104.2000        302
 104.3000        300
 104.4000        333
 104.5000        297
 104.6000        305
 104.7000        336
 104.8000        308
 104.9000        324
 105.0000        312
 105.1000        329
 105.2000        293
 105.3000        296
 105.4000        281
 105.5000        316
 105.6000        298
 105.7000        311
 105.8000        306
 105.9000        337
 106.0000        301
 106.1000        311
 106.2000        315
 106.3000        314
 106.4000        347
 106.5000        302
 106.6000        330
 106.7000        308
 106.8000        328
 106.9000        347
 107.0000        342
 107.1000        326
 107.2000        342
 107.3000        304
 107.4000        301
 107.5000        296
 107.6000        307
 107.7000        298
 107.8000        282
 107.9000        325
 108.0000        371
 108.1000        353
 108.2000        317
 108.3000        326
 108.4000        296
 108.5000        328
 108.6000        297
 108.7000        328
 108.8000        314
 108.9000        363
 109.0000        361
 109.1000        325
 109.2000        312
 109.3000        297
 109.4000        344
 109.5000        323
 109.6000        314
 109.7000        306
 109.8000        339
 109.9000        392
 110.0000        349
 110.1000        349
 110.2000        373
 110.3000        344
 110.4000        368
 110.5000        357
 110.6000        372
 110.7000        351
 110.8000        373
 110.9000        398
 111.0000        355
 111.1000        378
 111.2000        383
 111.3000        363
 111.4000        346
 111.5000        353
 111.6000        384
 111.7000        332
 111.8000        313
 111.9000        331
 112.0000        324
 112.1000        352
 112.2000        329
 112.3000        324
 112.4000        353
 112.5000        325
 112.6000        325
 112.7000        340
 112.8000        319
 112.9000        328
 113.0000        362
 113.1000        324
 113.2000        385
 113.3000        310
 113.4000        345
 113.5000        342
 113.6000        342
 113.7000        349
 113.8000        318
 113.9000        331
 114.0000        309
 114.1000        311
 114.2000        330
 114.3000        340
 114.4000        369
 114.5000        330
 114.6000        327
 114.7000        302
 114.8000        336
 114.9000        322
 115.0000        344
 115.1000        321
 115.2000        369
 115.3000        353
 115.4000        333
 115.5000        321
 115.6000        350
 115.7000        361
 115.8000        349
 115.9000        348
 116.0000        375
 116.1000        356
 116.2000        346
 116.3000        359
 116.4000        366
 116.5000        292
 116.6000        328
 116.7000        332
 116.8000        363
 116.9000        351
 117.0000        324
 117.1000        354
 117.2000        369
 117.3000        372
 117.4000        316
 117.5000        381
 117.6000        343
 117.7000        359
 117.8000        389
 117.9000        325
 118.0000        362
 118.1000        389
 118.2000        381
 118.3000        355
 118.4000        376
 118.5000        406
 118.6000        368
 118.7000        406
 118.8000        373
 118.9000        368
 119.0000        354
 119.1000        383
 119.2000        372
 119.3000        376
 119.4000        357
 119.5000        364
 119.6000        355
 119.7000        342
 119.8000        337
 119.9000        332
 120.0000        368
 120.1000        348
 120.2000        365
 120.3000        357
 120.4000        348
 120.5000        394
 120.6000        360
 120.7000        327
 120.8000        350
 120.9000        350
 121.0000        358
 121.1000        342
 121.2000        374
 121.3000        344
 121.4000        349
 121.5000        360
 121.6000        349
 121.7000        322
 121.8000        360
 121.9000        341
 122.0000        367
 122.1000        386
 122.2000        375
 122.3000        396
 122.4000        400
 122.5000        399
 122.6000        432
 122.7000        422
 122.8000        472
 122.9000        419
 123.0000        434
 123.1000        468
 123.2000        495
 123.3000        438
 123.4000        466
 123.5000        503
 123.6000        492
 123.7000        459
 123.8000        481
 123.9000        461
 124.0000        444
 124.1000        454
 124.2000        423
 124.3000        401
 124.4000        436
 124.5000        410
 124.6000        404
 124.7000        405
 124.8000        410
 124.9000        349
 125.0000        403
 125.1000        377
 125.2000        343
 125.3000        373
 125.4000        363
 125.5000        389
 125.6000        355
 125.7000        394
 125.8000        378
 125.9000        386
 126.0000        374
 126.1000        350
 126.2000        342
 126.3000        363
 126.4000        354
 126.5000        351
 126.6000        380
 126.7000        388
 126.8000        377
 126.9000        400
 127.0000        388
 127.1000        352
 127.2000        403
 127.3000        365
 127.4000        397
 127.5000        365
 127.6000        390
 127.7000        387
 127.8000        407
 127.9000        392
 128.0000        372
 128.1000        397
 128.2000        370
 128.3000        356
 128.4000        342
 128.5000        367
 128.6000        378
 128.7000        380
 128.8000        397
 128.9000        387
 129.0000        361
 129.1000        359
 129.2000        341
 129.3000        390
 129.4000        358
 129.5000        355
 129.6000        379
 129.7000        364
 129.8000        377
 129.9000        370
 130.0000        361