File: exp_dat/old/exp_2013_11_11/05pct_100G.uxd
; (content of file C:\DIFFDAT1\GIFT\MDL\Seawoong Lee\20131104_MV8\equal_area_maxkhi080_n8_2th40_130_x00y-25_100g.raw)
_FILEVERSION = 3
_SAMPLE =
_+SAMPLE =
_SITE = Korea
_USER = Admin
_GONIOMETER_CODE = 20
; Goniometer : D8 theta/2theta, stage : Unknown
_SAMPLE_CHANGER_CODE = 0
_ATTACHMENTS_CODE = 0
_GONIOMETER_RADIUS = 300
_FIXED_DIVSLIT = 1
_FIXED_SAMPLESLIT = 0
_SOLLER_SLITS = 2
_FIXED_DETSLIT = 0.1
_MONOCHROMATOR = 0
; Incident beam monochromator : None
_SOLLER_SLITS_2 = 2
_THIN_FILM = N
_BETA_FILTER = Y
_FIXED_ANTISLIT = 0.6
_ANALYZER_CODE = 0
; Received beam analyzer : None
_DATEMEASURED = "05-Nov-2013 21:53:16"
_WL_UNIT = A
_WL1 = 1.78897
_WL2 = 1.79285
_WL3 = 1.62079
_WLRATIO = 0.5
_ANODE = Co
_V4_INF_CREATOR = XRDWizard
_V4_INF_CREATOR_VERSION = V2.9.0.22
_V4_INF_WIZARD_VERSION = V2.9.0.22
_V4_INF_WIZARD_ADDINS = V2.9.0.22
_V4_INF_WIZARD_DOCTYPE = XRD
_V4_INF_OSUSER = Postech
_V4_INF_USER = Admin
_V4_INF_SITE = Korea

; Data for range 1
_DRIVE = COUPLED
_STEPTIME = 0.2
_STEPSIZE = 0.1
_STEPMODE = C
_START = 40
_THETA = 20
_2THETA = 40
_KHI = 0
_PHI = 0
_X = 0
_Y = -25
_Z = 0
_DETECTOR = 1
; Detector type : Scintillation counter
_HV = 687
_GAIN = 80
_LLD = 0.69
_ULD = 1.866
_DETECTORSLIT = unkn
_AUX1 = 0
_AUX2 = 0
_AUX3 = 0
_TIMESTARTED = 28
_TEMP_RATE = -1
_TEMP_DELAY = -1
_KV = 35
_MA = 40
_RANGE_WL = 1.78897
_3DPLANE = 0
_V4_ADDITIONALDETECTOR = 0
_V4_D8_DIBNUM = 1
_V4_DETECTORNAME = "Detector 1"
_V4_TTLDETECTOR = None
_V4_DETECTORTYPE = 1
_V4_DETECTORFLAGS = 524545
_V4_DETECTORHV = 687
_V4_DETECTORGAIN = 80
_V4_DETECTORLLD1 = 0.69
_V4_DETECTORWW1 = 1.176
_V4_DETECTORLLD2 = 0
_V4_DETECTORWW2 = 0
_V4_DETECTORPS = 0
_V4_DETECTORDT = 0
_V4_DETECTORPILEUPTIME = 0
_V4_COUNTERS_MASK = 1
_V4_DRIVES_MASK = 0
_V4_ENCODERS_MASK = 0
_2THETACOUNTS = 1
; 2THETA  Cnt1_D1
  40.0000        501
  40.1000        499
  40.2000        516
  40.3000        441
  40.4000        454
  40.5000        483
  40.6000        496
  40.7000        486
  40.8000        502
  40.9000        494
  41.0000        545
  41.1000        495
  41.2000        486
  41.3000        511
  41.4000        529
  41.5000        458
  41.6000        510
  41.7000        513
  41.8000        478
  41.9000        487
  42.0000        491
  42.1000        469
  42.2000        446
  42.3000        453
  42.4000        480
  42.5000        529
  42.6000        504
  42.7000        483
  42.8000        475
  42.9000        503
  43.0000        489
  43.1000        489
  43.2000        498
  43.3000        485
  43.4000        443
  43.5000        515
  43.6000        472
  43.7000        487
  43.8000        504
  43.9000        525
  44.0000        514
  44.1000        545
  44.2000        508
  44.3000        478
  44.4000        474
  44.5000        557
  44.6000        514
  44.7000        482
  44.8000        506
  44.9000        484
  45.0000        483
  45.1000        502
  45.2000        479
  45.3000        479
  45.4000        475
  45.5000        526
  45.6000        496
  45.7000        513
  45.8000        510
  45.9000        520
  46.0000        515
  46.1000        484
  46.2000        499
  46.3000        481
  46.4000        481
  46.5000        466
  46.6000        535
  46.7000        550
  46.8000        516
  46.9000        491
  47.0000        515
  47.1000        546
  47.2000        493
  47.3000        528
  47.4000        529
  47.5000        497
  47.6000        502
  47.7000        510
  47.8000        537
  47.9000        478
  48.0000        499
  48.1000        519
  48.2000        501
  48.3000        504
  48.4000        515
  48.5000        513
  48.6000        484
  48.7000        509
  48.8000        538
  48.9000        506
  49.0000        525
  49.1000        489
  49.2000        507
  49.3000        534
  49.4000        517
  49.5000        509
  49.6000        509
  49.7000        521
  49.8000        546
  49.9000        487
  50.0000        515
  50.1000        540
  50.2000        518
  50.3000        515
  50.4000        582
  50.5000        552
  50.6000        516
  50.7000        496
  50.8000        563
  50.9000        562
  51.0000        574
  51.1000        560
  51.2000        563
  51.3000        598
  51.4000        576
  51.5000        582
  51.6000        696
  51.7000        793
  51.8000        865
  51.9000        992
  52.0000       1007
  52.1000       1036
  52.2000       1028
  52.3000       1009
  52.4000        972
  52.5000        955
  52.6000        806
  52.7000        697
  52.8000        631
  52.9000        564
  53.0000        527
  53.1000        505
  53.2000        473
  53.3000        518
  53.4000        529
  53.5000        545
  53.6000        506
  53.7000        515
  53.8000        524
  53.9000        533
  54.0000        556
  54.1000        525
  54.2000        525
  54.3000        532
  54.4000        517
  54.5000        498
  54.6000        460
  54.7000        503
  54.8000        498
  54.9000        510
  55.0000        502
  55.1000        531
  55.2000        475
  55.3000        527
  55.4000        487
  55.5000        512
  55.6000        509
  55.7000        468
  55.8000        534
  55.9000        532
  56.0000        513
  56.1000        502
  56.2000        540
  56.3000        510
  56.4000        524
  56.5000        507
  56.6000        538
  56.7000        503
  56.8000        537
  56.9000        548
  57.0000        491
  57.1000        494
  57.2000        533
  57.3000        487
  57.4000        486
  57.5000        512
  57.6000        459
  57.7000        497
  57.8000        518
  57.9000        528
  58.0000        518
  58.1000        524
  58.2000        489
  58.3000        522
  58.4000        489
  58.5000        522
  58.6000        533
  58.7000        518
  58.8000        535
  58.9000        520
  59.0000        550
  59.1000        510
  59.2000        540
  59.3000        560
  59.4000        536
  59.5000        567
  59.6000        589
  59.7000        555
  59.8000        569
  59.9000        520
  60.0000        502
  60.1000        559
  60.2000        468
  60.3000        527
  60.4000        544
  60.5000        477
  60.6000        504
  60.7000        518
  60.8000        510
  60.9000        520
  61.0000        529
  61.1000        518
  61.2000        530
  61.3000        493
  61.4000        504
  61.5000        533
  61.6000        482
  61.7000        516
  61.8000        526
  61.9000        532
  62.0000        536
  62.1000        479
  62.2000        543
  62.3000        493
  62.4000        515
  62.5000        502
  62.6000        511
  62.7000        533
  62.8000        502
  62.9000        518
  63.0000        506
  63.1000        557
  63.2000        542
  63.3000        496
  63.4000        490
  63.5000        491
  63.6000        520
  63.7000        530
  63.8000        526
  63.9000        472
  64.0000        487
  64.1000        488
  64.2000        466
  64.3000        519
  64.4000        477
  64.5000        530
  64.6000        483
  64.7000        480
  64.8000        500
  64.9000        553
  65.0000        493
  65.1000        550
  65.2000        563
  65.3000        514
  65.4000        484
  65.5000        515
  65.6000        517
  65.7000        521
  65.8000        520
  65.9000        526
  66.0000        530
  66.1000        500
  66.2000        521
  66.3000        467
  66.4000        487
  66.5000        482
  66.6000        485
  66.7000        496
  66.8000        483
  66.9000        542
  67.0000        505
  67.1000        514
  67.2000        486
  67.3000        471
  67.4000        534
  67.5000        527
  67.6000        492
  67.7000        518
  67.8000        494
  67.9000        536
  68.0000        517
  68.1000        508
  68.2000        498
  68.3000        518
  68.4000        522
  68.5000        513
  68.6000        513
  68.7000        494
  68.8000        499
  68.9000        549
  69.0000        553
  69.1000        469
  69.2000        511
  69.3000        504
  69.4000        494
  69.5000        490
  69.6000        526
  69.7000        509
  69.8000        496
  69.9000        500
  70.0000        466
  70.1000        536
  70.2000        523
  70.3000        521
  70.4000        526
  70.5000        502
  70.6000        502
  70.7000        547
  70.8000        503
  70.9000        523
  71.0000        523
  71.1000        516
  71.2000        513
  71.3000        487
  71.4000        504
  71.5000        505
  71.6000        509
  71.7000        527
  71.8000        494
  71.9000        511
  72.0000        477
  72.1000        476
  72.2000        499
  72.3000        504
  72.4000        494
  72.5000        499
  72.6000        456
  72.7000        500
  72.8000        508
  72.9000        522
  73.0000        499
  73.1000        487
  73.2000        520
  73.3000        483
  73.4000        520
  73.5000        521
  73.6000        587
  73.7000        501
  73.8000        517
  73.9000        548
  74.0000        537
  74.1000        505
  74.2000        502
  74.3000        515
  74.4000        478
  74.5000        490
  74.6000        531
  74.7000        504
  74.8000        535
  74.9000        532
  75.0000        556
  75.1000        544
  75.2000        523
  75.3000        558
  75.4000        504
  75.5000        539
  75.6000        529
  75.7000        541
  75.8000        568
  75.9000        549
  76.0000        580
  76.1000        691
  76.2000        684
  76.3000        778
  76.4000        945
  76.5000        952
  76.6000       1068
  76.7000       1154
  76.8000       1112
  76.9000       1113
  77.0000       1079
  77.1000        971
  77.2000        937
  77.3000        862
  77.4000        704
  77.5000        707
  77.6000        607
  77.7000        590
  77.8000        571
  77.9000        536
  78.0000        540
  78.1000        549
  78.2000        534
  78.3000        519
  78.4000        509
  78.5000        519
  78.6000        531
  78.7000        536
  78.8000        499
  78.9000        519
  79.0000        531
  79.1000        533
  79.2000        511
  79.3000        498
  79.4000        489
  79.5000        503
  79.6000        503
  79.7000        483
  79.8000        503
  79.9000        538
  80.0000        498
  80.1000        518
  80.2000        505
  80.3000        502
  80.4000        483
  80.5000        524
  80.6000        514
  80.7000        486
  80.8000        497
  80.9000        486
  81.0000        485
  81.1000        510
  81.2000        471
  81.3000        530
  81.4000        511
  81.5000        495
  81.6000        529
  81.7000        483
  81.8000        492
  81.9000        489
  82.0000        511
  82.1000        531
  82.2000        534
  82.3000        478
  82.4000        537
  82.5000        545
  82.6000        514
  82.7000        520
  82.8000        508
  82.9000        539
  83.0000        492
  83.1000        504
  83.2000        530
  83.3000        542
  83.4000        507
  83.5000        490
  83.6000        520
  83.7000        490
  83.8000        518
  83.9000        527
  84.0000        501
  84.1000        502
  84.2000        490
  84.3000        513
  84.4000        506
  84.5000        550
  84.6000        512
  84.7000        526
  84.8000        495
  84.9000        495
  85.0000        495
  85.1000        543
  85.2000        486
  85.3000        526
  85.4000        556
  85.5000        509
  85.6000        517
  85.7000        493
  85.8000        528
  85.9000        462
  86.0000        534
  86.1000        528
  86.2000        497
  86.3000        513
  86.4000        520
  86.5000        526
  86.6000        526
  86.7000        493
  86.8000        516
  86.9000        492
  87.0000        507
  87.1000        534
  87.2000        512
  87.3000        515
  87.4000        525
  87.5000        509
  87.6000        498
  87.7000        507
  87.8000        528
  87.9000        579
  88.0000        503
  88.1000        513
  88.2000        524
  88.3000        499
  88.4000        517
  88.5000        591
  88.6000        595
  88.7000        544
  88.8000        557
  88.9000        587
  89.0000        568
  89.1000        593
  89.2000        641
  89.3000        615
  89.4000        611
  89.5000        634
  89.6000        671
  89.7000        622
  89.8000        636
  89.9000        577
  90.0000        567
  90.1000        564
  90.2000        561
  90.3000        521
  90.4000        556
  90.5000        515
  90.6000        549
  90.7000        530
  90.8000        543
  90.9000        526
  91.0000        530
  91.1000        535
  91.2000        519
  91.3000        475
  91.4000        504
  91.5000        511
  91.6000        560
  91.7000        511
  91.8000        517
  91.9000        492
  92.0000        514
  92.1000        526
  92.2000        528
  92.3000        513
  92.4000        512
  92.5000        502
  92.6000        496
  92.7000        528
  92.8000        509
  92.9000        535
  93.0000        497
  93.1000        501
  93.2000        502
  93.3000        502
  93.4000        519
  93.5000        501
  93.6000        512
  93.7000        517
  93.8000        506
  93.9000        540
  94.0000        463
  94.1000        542
  94.2000        532
  94.3000        523
  94.4000        495
  94.5000        501
  94.6000        472
  94.7000        501
  94.8000        488
  94.9000        520
  95.0000        535
  95.1000        494
  95.2000        545
  95.3000        517
  95.4000        519
  95.5000        498
  95.6000        537
  95.7000        515
  95.8000        493
  95.9000        513
  96.0000        478
  96.1000        500
  96.2000        507
  96.3000        507
  96.4000        549
  96.5000        493
  96.6000        536
  96.7000        482
  96.8000        535
  96.9000        509
  97.0000        528
  97.1000        530
  97.2000        528
  97.3000        494
  97.4000        531
  97.5000        534
  97.6000        513
  97.7000        529
  97.8000        530
  97.9000        522
  98.0000        568
  98.1000        571
  98.2000        578
  98.3000        600
  98.4000        635
  98.5000        687
  98.6000        789
  98.7000        937
  98.8000       1150
  98.9000       1217
  99.0000       1324
  99.1000       1471
  99.2000       1515
  99.3000       1536
  99.4000       1511
  99.5000       1338
  99.6000       1312
  99.7000       1149
  99.8000        982
  99.9000        929
 100.0000        775
 100.1000        688
 100.2000        640
 100.3000        586
 100.4000        543
 100.5000        562
 100.6000        558
 100.7000        523
 100.8000        511
 100.9000        532
 101.0000        567
 101.1000        501
 101.2000        518
 101.3000        530
 101.4000        522
 101.5000        509
 101.6000        489
 101.7000        480
 101.8000        517
 101.9000        543
 102.0000        535
 102.1000        534
 102.2000        518
 102.3000        526
 102.4000        488
 102.5000        514
 102.6000        517
 102.7000        532
 102.8000        509
 102.9000        549
 103.0000        497
 103.1000        508
 103.2000        504
 103.3000        513
 103.4000        512
 103.5000        512
 103.6000        525
 103.7000        505
 103.8000        553
 103.9000        539
 104.0000        493
 104.1000        508
 104.2000        508
 104.3000        504
 104.4000        500
 104.5000        503
 104.6000        508
 104.7000        498
 104.8000        524
 104.9000        506
 105.0000        552
 105.1000        514
 105.2000        508
 105.3000        503
 105.4000        516
 105.5000        462
 105.6000        506
 105.7000        454
 105.8000        540
 105.9000        511
 106.0000        529
 106.1000        521
 106.2000        547
 106.3000        547
 106.4000        518
 106.5000        528
 106.6000        522
 106.7000        495
 106.8000        514
 106.9000        493
 107.0000        501
 107.1000        486
 107.2000        493
 107.3000        512
 107.4000        468
 107.5000        547
 107.6000        494
 107.7000        542
 107.8000        516
 107.9000        505
 108.0000        503
 108.1000        546
 108.2000        499
 108.3000        528
 108.4000        522
 108.5000        509
 108.6000        512
 108.7000        523
 108.8000        538
 108.9000        513
 109.0000        490
 109.1000        516
 109.2000        545
 109.3000        523
 109.4000        510
 109.5000        526
 109.6000        523
 109.7000        575
 109.8000        555
 109.9000        540
 110.0000        543
 110.1000        488
 110.2000        520
 110.3000        511
 110.4000        514
 110.5000        537
 110.6000        528
 110.7000        524
 110.8000        552
 110.9000        542
 111.0000        584
 111.1000        567
 111.2000        572
 111.3000        530
 111.4000        508
 111.5000        555
 111.6000        537
 111.7000        507
 111.8000        511
 111.9000        530
 112.0000        507
 112.1000        559
 112.2000        538
 112.3000        526
 112.4000        514
 112.5000        496
 112.6000        539
 112.7000        564
 112.8000        502
 112.9000        527
 113.0000        539
 113.1000        502
 113.2000        526
 113.3000        570
 113.4000        524
 113.5000        504
 113.6000        519
 113.7000        480
 113.8000        506
 113.9000        499
 114.0000        531
 114.1000        515
 114.2000        529
 114.3000        500
 114.4000        503
 114.5000        527
 114.6000        519
 114.7000        487
 114.8000        524
 114.9000        547
 115.0000        515
 115.1000        500
 115.2000        520
 115.3000        493
 115.4000        486
 115.5000        527
 115.6000        496
 115.7000        530
 115.8000        531
 115.9000        485
 116.0000        509
 116.1000        495
 116.2000        486
 116.3000        454
 116.4000        521
 116.5000        493
 116.6000        511
 116.7000        474
 116.8000        500
 116.9000        519
 117.0000        518
 117.1000        513
 117.2000        550
 117.3000        505
 117.4000        533
 117.5000        481
 117.6000        524
 117.7000        549
 117.8000        520
 117.9000        500
 118.0000        538
 118.1000        481
 118.2000        514
 118.3000        494
 118.4000        522
 118.5000        552
 118.6000        557
 118.7000        510
 118.8000        533
 118.9000        504
 119.0000        541
 119.1000        523
 119.2000        521
 119.3000        513
 119.4000        512
 119.5000        517
 119.6000        550
 119.7000        545
 119.8000        479
 119.9000        511
 120.0000        533
 120.1000        509
 120.2000        540
 120.3000        511
 120.4000        496
 120.5000        514
 120.6000        516
 120.7000        525
 120.8000        505
 120.9000        481
 121.0000        508
 121.1000        498
 121.2000        512
 121.3000        491
 121.4000        483
 121.5000        509
 121.6000        517
 121.7000        481
 121.8000        489
 121.9000        474
 122.0000        535
 122.1000        512
 122.2000        487
 122.3000        516
 122.4000        505
 122.5000        508
 122.6000        521
 122.7000        531
 122.8000        561
 122.9000        518
 123.0000        530
 123.1000        539
 123.2000        549
 123.3000        529
 123.4000        540
 123.5000        555
 123.6000        588
 123.7000        529
 123.8000        552
 123.9000        560
 124.0000        546
 124.1000        518
 124.2000        517
 124.3000        546
 124.4000        513
 124.5000        502
 124.6000        534
 124.7000        531
 124.8000        466
 124.9000        519
 125.0000        539
 125.1000        510
 125.2000        513
 125.3000        476
 125.4000        510
 125.5000        516
 125.6000        473
 125.7000        524
 125.8000        512
 125.9000        553
 126.0000        503
 126.1000        499
 126.2000        522
 126.3000        521
 126.4000        540
 126.5000        540
 126.6000        478
 126.7000        490
 126.8000        509
 126.9000        518
 127.0000        543
 127.1000        481
 127.2000        516
 127.3000        507
 127.4000        550
 127.5000        501
 127.6000        493
 127.7000        533
 127.8000        544
 127.9000        494
 128.0000        500
 128.1000        539
 128.2000        483
 128.3000        530
 128.4000        501
 128.5000        499
 128.6000        477
 128.7000        528
 128.8000        523
 128.9000        516
 129.0000        530
 129.1000        534
 129.2000        496
 129.3000        513
 129.4000        508
 129.5000        515
 129.6000        507
 129.7000        520
 129.8000        497
 129.9000        543
 130.0000        519

; Data for range 2
_DRIVE = COUPLED
_STEPTIME = 0.2
_STEPSIZE = 0.1
_STEPMODE = C
_START = 40
_THETA = 20
_2THETA = 40
_KHI = 10.5
_PHI = 60
_X = 0
_Y = -25
_Z = 0
_DETECTOR = 1
; Detector type : Scintillation counter
_HV = 687
_GAIN = 80
_LLD = 0.69
_ULD = 1.866
_DETECTORSLIT = unkn
_AUX1 = 0
_AUX2 = 0
_AUX3 = 0
_TIMESTARTED = 225
_TEMP_RATE = -1
_TEMP_DELAY = -1
_KV = 35
_MA = 40
_RANGE_WL = 1.78897
_3DPLANE = 0
_V4_ADDITIONALDETECTOR = 0
_V4_D8_DIBNUM = 1
_V4_DETECTORNAME = "Detector 1"
_V4_TTLDETECTOR = None
_V4_DETECTORTYPE = 1
_V4_DETECTORFLAGS = 524545
_V4_DETECTORHV = 687
_V4_DETECTORGAIN = 80
_V4_DETECTORLLD1 = 0.69
_V4_DETECTORWW1 = 1.176
_V4_DETECTORLLD2 = 0
_V4_DETECTORWW2 = 0
_V4_DETECTORPS = 0
_V4_DETECTORDT = 0
_V4_DETECTORPILEUPTIME = 0
_V4_COUNTERS_MASK = 1
_V4_DRIVES_MASK = 0
_V4_ENCODERS_MASK = 0
_2THETACOUNTS = 1
; 2THETA  Cnt1_D1
  40.0000        497
  40.1000        500
  40.2000        464
  40.3000        488
  40.4000        524
  40.5000        464
  40.6000        476
  40.7000        478
  40.8000        466
  40.9000        480
  41.0000        523
  41.1000        462
  41.2000        459
  41.3000        481
  41.4000        512
  41.5000        483
  41.6000        486
  41.7000        515
  41.8000        517
  41.9000        495
  42.0000        463
  42.1000        436
  42.2000        495
  42.3000        514
  42.4000        526
  42.5000        482
  42.6000        470
  42.7000        435
  42.8000        461
  42.9000        485
  43.0000        491
  43.1000        488
  43.2000        492
  43.3000        511
  43.4000        509
  43.5000        486
  43.6000        512
  43.7000        532
  43.8000        465
  43.9000        491
  44.0000        507
  44.1000        479
  44.2000        469
  44.3000        491
  44.4000        526
  44.5000        519
  44.6000        492
  44.7000        536
  44.8000        484
  44.9000        489
  45.0000        531
  45.1000        483
  45.2000        496
  45.3000        506
  45.4000        488
  45.5000        498
  45.6000        461
  45.7000        530
  45.8000        485
  45.9000        501
  46.0000        489
  46.1000        471
  46.2000        512
  46.3000        554
  46.4000        479
  46.5000        516
  46.6000        521
  46.7000        510
  46.8000        524
  46.9000        547
  47.0000        516
  47.1000        514
  47.2000        504
  47.3000        523
  47.4000        491
  47.5000        461
  47.6000        446
  47.7000        539
  47.8000        512
  47.9000        508
  48.0000        472
  48.1000        536
  48.2000        481
  48.3000        507
  48.4000        499
  48.5000        487
  48.6000        536
  48.7000        547
  48.8000        502
  48.9000        482
  49.0000        533
  49.1000        490
  49.2000        475
  49.3000        517
  49.4000        518
  49.5000        509
  49.6000        511
  49.7000        471
  49.8000        512
  49.9000        501
  50.0000        558
  50.1000        530
  50.2000        474
  50.3000        538
  50.4000        506
  50.5000        544
  50.6000        569
  50.7000        549
  50.8000        559
  50.9000        590
  51.0000        620
  51.1000        577
  51.2000        597
  51.3000        610
  51.4000        586
  51.5000        654
  51.6000        781
  51.7000        883
  51.8000        973
  51.9000       1093
  52.0000       1150
  52.1000       1211
  52.2000       1142
  52.3000       1153
  52.4000       1081
  52.5000        976
  52.6000        866
  52.7000        689
  52.8000        556
  52.9000        595
  53.0000        512
  53.1000        527
  53.2000        562
  53.3000        541
  53.4000        485
  53.5000        537
  53.6000        499
  53.7000        542
  53.8000        576
  53.9000        516
  54.0000        533
  54.1000        494
  54.2000        530
  54.3000        499
  54.4000        500
  54.5000        533
  54.6000        514
  54.7000        500
  54.8000        509
  54.9000        575
  55.0000        502
  55.1000        469
  55.2000        546
  55.3000        518
  55.4000        500
  55.5000        497
  55.6000        484
  55.7000        520
  55.8000        521
  55.9000        508
  56.0000        559
  56.1000        529
  56.2000        539
  56.3000        470
  56.4000        510
  56.5000        483
  56.6000        484
  56.7000        495
  56.8000        530
  56.9000        491
  57.0000        494
  57.1000        496
  57.2000        511
  57.3000        553
  57.4000        516
  57.5000        500
  57.6000        532
  57.7000        472
  57.8000        523
  57.9000        523
  58.0000        581
  58.1000        511
  58.2000        517
  58.3000        465
  58.4000        581
  58.5000        524
  58.6000        520
  58.7000        538
  58.8000        510
  58.9000        562
  59.0000        552
  59.1000        536
  59.2000        564
  59.3000        514
  59.4000        585
  59.5000        561
  59.6000        549
  59.7000        516
  59.8000        560
  59.9000        540
  60.0000        548
  60.1000        562
  60.2000        537
  60.3000        510
  60.4000        515
  60.5000        578
  60.6000        543
  60.7000        490
  60.8000        504
  60.9000        524
  61.0000        465
  61.1000        545
  61.2000        575
  61.3000        510
  61.4000        529
  61.5000        493
  61.6000        498
  61.7000        514
  61.8000        547
  61.9000        524
  62.0000        517
  62.1000        497
  62.2000        520
  62.3000        539
  62.4000        514
  62.5000        498
  62.6000        478
  62.7000        501
  62.8000        533
  62.9000        514
  63.0000        473
  63.1000        505
  63.2000        477
  63.3000        484
  63.4000        530
  63.5000        535
  63.6000        500
  63.7000        498
  63.8000        520
  63.9000        489
  64.0000        504
  64.1000        497
  64.2000        548
  64.3000        529
  64.4000        504
  64.5000        508
  64.6000        520
  64.7000        521
  64.8000        455
  64.9000        500
  65.0000        450
  65.1000        528
  65.2000        453
  65.3000        495
  65.4000        475
  65.5000        494
  65.6000        478
  65.7000        506
  65.8000        536
  65.9000        479
  66.0000        505
  66.1000        518
  66.2000        539
  66.3000        485
  66.4000        499
  66.5000        524
  66.6000        512
  66.7000        482
  66.8000        480
  66.9000        516
  67.0000        497
  67.1000        505
  67.2000        497
  67.3000        490
  67.4000        524
  67.5000        501
  67.6000        512
  67.7000        505
  67.8000        500
  67.9000        530
  68.0000        490
  68.1000        455
  68.2000        473
  68.3000        456
  68.4000        518
  68.5000        527
  68.6000        511
  68.7000        474
  68.8000        496
  68.9000        506
  69.0000        570
  69.1000        496
  69.2000        517
  69.3000        472
  69.4000        509
  69.5000        482
  69.6000        535
  69.7000        488
  69.8000        485
  69.9000        523
  70.0000        512
  70.1000        472
  70.2000        507
  70.3000        496
  70.4000        529
  70.5000        485
  70.6000        539
  70.7000        506
  70.8000        499
  70.9000        473
  71.0000        510
  71.1000        523
  71.2000        508
  71.3000        492
  71.4000        500
  71.5000        521
  71.6000        479
  71.7000        509
  71.8000        496
  71.9000        507
  72.0000        460
  72.1000        538
  72.2000        533
  72.3000        501
  72.4000        491
  72.5000        503
  72.6000        519
  72.7000        514
  72.8000        501
  72.9000        498
  73.0000        516
  73.1000        482
  73.2000        459
  73.3000        511
  73.4000        506
  73.5000        488
  73.6000        522
  73.7000        481
  73.8000        463
  73.9000        519
  74.0000        489
  74.1000        481
  74.2000        493
  74.3000        466
  74.4000        491
  74.5000        486
  74.6000        500
  74.7000        498
  74.8000        486
  74.9000        459
  75.0000        487
  75.1000        539
  75.2000        497
  75.3000        517
  75.4000        500
  75.5000        539
  75.6000        489
  75.7000        491
  75.8000        511
  75.9000        488
  76.0000        521
  76.1000        512
  76.2000        524
  76.3000        596
  76.4000        631
  76.5000        618
  76.6000        641
  76.7000        641
  76.8000        692
  76.9000        668
  77.0000        691
  77.1000        674
  77.2000        645
  77.3000        634
  77.4000        595
  77.5000        574
  77.6000        569
  77.7000        516
  77.8000        526
  77.9000        541
  78.0000        520
  78.1000        503
  78.2000        507
  78.3000        519
  78.4000        509
  78.5000        466
  78.6000        495
  78.7000        499
  78.8000        515
  78.9000        513
  79.0000        492
  79.1000        507
  79.2000        484
  79.3000        549
  79.4000        518
  79.5000        503
  79.6000        488
  79.7000        502
  79.8000        529
  79.9000        518
  80.0000        519
  80.1000        483
  80.2000        547
  80.3000        464
  80.4000        494
  80.5000        491
  80.6000        497
  80.7000        491
  80.8000        499
  80.9000        531
  81.0000        446
  81.1000        502
  81.2000        471
  81.3000        507
  81.4000        482
  81.5000        519
  81.6000        483
  81.7000        488
  81.8000        493
  81.9000        521
  82.0000        451
  82.1000        422
  82.2000        494
  82.3000        500
  82.4000        539
  82.5000        493
  82.6000        480
  82.7000        448
  82.8000        538
  82.9000        549
  83.0000        504
  83.1000        512
  83.2000        456
  83.3000        463
  83.4000        492
  83.5000        529
  83.6000        482
  83.7000        466
  83.8000        508
  83.9000        479
  84.0000        508
  84.1000        485
  84.2000        499
  84.3000        520
  84.4000        472
  84.5000        534
  84.6000        490
  84.7000        519
  84.8000        512
  84.9000        472
  85.0000        483
  85.1000        500
  85.2000        511
  85.3000        508
  85.4000        498
  85.5000        553
  85.6000        488
  85.7000        498
  85.8000        503
  85.9000        488
  86.0000        507
  86.1000        488
  86.2000        471
  86.3000        494
  86.4000        474
  86.5000        506
  86.6000        480
  86.7000        490
  86.8000        511
  86.9000        555
  87.0000        502
  87.1000        503
  87.2000        538
  87.3000        507
  87.4000        514
  87.5000        481
  87.6000        530
  87.7000        537
  87.8000        536
  87.9000        529
  88.0000        514
  88.1000        533
  88.2000        508
  88.3000        518
  88.4000        470
  88.5000        535
  88.6000        524
  88.7000        492
  88.8000        540
  88.9000        568
  89.0000        533
  89.1000        503
  89.2000        526
  89.3000        566
  89.4000        547
  89.5000        573
  89.6000        574
  89.7000        525
  89.8000        529
  89.9000        522
  90.0000        584
  90.1000        519
  90.2000        486
  90.3000        481
  90.4000        496
  90.5000        503
  90.6000        512
  90.7000        479
  90.8000        522
  90.9000        514
  91.0000        506
  91.1000        518
  91.2000        515
  91.3000        527
  91.4000        517
  91.5000        527
  91.6000        517
  91.7000        553
  91.8000        540
  91.9000        507
  92.0000        501
  92.1000        511
  92.2000        496
  92.3000        475
  92.4000        475
  92.5000        476
  92.6000        509
  92.7000        535
  92.8000        500
  92.9000        496
  93.0000        492
  93.1000        471
  93.2000        463
  93.3000        509
  93.4000        500
  93.5000        535
  93.6000        545
  93.7000        484
  93.8000        504
  93.9000        516
  94.0000        472
  94.1000        496
  94.2000        520
  94.3000        517
  94.4000        487
  94.5000        498
  94.6000        532
  94.7000        503
  94.8000        479
  94.9000        509
  95.0000        504
  95.1000        508
  95.2000        505
  95.3000        488
  95.4000        485
  95.5000        487
  95.6000        507
  95.7000        532
  95.8000        513
  95.9000        501
  96.0000        544
  96.1000        496
  96.2000        514
  96.3000        508
  96.4000        492
  96.5000        432
  96.6000        514
  96.7000        500
  96.8000        523
  96.9000        507
  97.0000        497
  97.1000        477
  97.2000        502
  97.3000        549
  97.4000        551
  97.5000        460
  97.6000        516
  97.7000        511
  97.8000        511
  97.9000        485
  98.0000        516
  98.1000        507
  98.2000        490
  98.3000        528
  98.4000        545
  98.5000        604
  98.6000        640
  98.7000        681
  98.8000        750
  98.9000        797
  99.0000        870
  99.1000        947
  99.2000        912
  99.3000        984
  99.4000        950
  99.5000        898
  99.6000        881
  99.7000        819
  99.8000        746
  99.9000        664
 100.0000        621
 100.1000        665
 100.2000        548
 100.3000        542
 100.4000        555
 100.5000        521
 100.6000        548
 100.7000        494
 100.8000        478
 100.9000        533
 101.0000        561
 101.1000        494
 101.2000        506
 101.3000        477
 101.4000        513
 101.5000        497
 101.6000        507
 101.7000        540
 101.8000        522
 101.9000        494
 102.0000        478
 102.1000        527
 102.2000        518
 102.3000        515
 102.4000        531
 102.5000        512
 102.6000        530
 102.7000        527
 102.8000        495
 102.9000        519
 103.0000        531
 103.1000        531
 103.2000        490
 103.3000        488
 103.4000        510
 103.5000        497
 103.6000        490
 103.7000        471
 103.8000        490
 103.9000        483
 104.0000        502
 104.1000        514
 104.2000        509
 104.3000        522
 104.4000        461
 104.5000        508
 104.6000        481
 104.7000        558
 104.8000        504
 104.9000        472
 105.0000        485
 105.1000        498
 105.2000        501
 105.3000        537
 105.4000        458
 105.5000        477
 105.6000        495
 105.7000        500
 105.8000        496
 105.9000        508
 106.0000        535
 106.1000        533
 106.2000        518
 106.3000        487
 106.4000        516
 106.5000        499
 106.6000        520
 106.7000        497
 106.8000        489
 106.9000        578
 107.0000        520
 107.1000        473
 107.2000        485
 107.3000        508
 107.4000        503
 107.5000        496
 107.6000        513
 107.7000        484
 107.8000        495
 107.9000        506
 108.0000        467
 108.1000        515
 108.2000        510
 108.3000        490
 108.4000        529
 108.5000        519
 108.6000        526
 108.7000        536
 108.8000        510
 108.9000        488
 109.0000        475
 109.1000        533
 109.2000        509
 109.3000        507
 109.4000        492
 109.5000        545
 109.6000        495
 109.7000        523
 109.8000        483
 109.9000        507
 110.0000        506
 110.1000        498
 110.2000        513
 110.3000        511
 110.4000        551
 110.5000        546
 110.6000        556
 110.7000        550
 110.8000        532
 110.9000        522
 111.0000        519
 111.1000        535
 111.2000        520
 111.3000        545
 111.4000        566
 111.5000        538
 111.6000        535
 111.7000        565
 111.8000        522
 111.9000        548
 112.0000        486
 112.1000        498
 112.2000        543
 112.3000        502
 112.4000        493
 112.5000        551
 112.6000        541
 112.7000        491
 112.8000        517
 112.9000        508
 113.0000        495
 113.1000        521
 113.2000        498
 113.3000        501
 113.4000        531
 113.5000        491
 113.6000        531
 113.7000        476
 113.8000        487
 113.9000        522
 114.0000        487
 114.1000        502
 114.2000        493
 114.3000        496
 114.4000        518
 114.5000        486
 114.6000        571
 114.7000        487
 114.8000        530
 114.9000        505
 115.0000        474
 115.1000        519
 115.2000        490
 115.3000        502
 115.4000        497
 115.5000        490
 115.6000        580
 115.7000        464
 115.8000        477
 115.9000        493
 116.0000        478
 116.1000        500
 116.2000        505
 116.3000        479
 116.4000        484
 116.5000        501
 116.6000        472
 116.7000        503
 116.8000        485
 116.9000        521
 117.0000        535
 117.1000        533
 117.2000        493
 117.3000        507
 117.4000        497
 117.5000        523
 117.6000        501
 117.7000        478
 117.8000        483
 117.9000        489
 118.0000        509
 118.1000        498
 118.2000        494
 118.3000        483
 118.4000        483
 118.5000        507
 118.6000        531
 118.7000        519
 118.8000        522
 118.9000        523
 119.0000        508
 119.1000        511
 119.2000        480
 119.3000        515
 119.4000        504
 119.5000        513
 119.6000        521
 119.7000        506
 119.8000        518
 119.9000        468
 120.0000        510
 120.1000        453
 120.2000        539
 120.3000        500
 120.4000        491
 120.5000        466
 120.6000        493
 120.7000        535
 120.8000        517
 120.9000        496
 121.0000        477
 121.1000        498
 121.2000        487
 121.3000        560
 121.4000        538
 121.5000        513
 121.6000        475
 121.7000        530
 121.8000        489
 121.9000        492
 122.0000        490
 122.1000        522
 122.2000        499
 122.3000        521
 122.4000        484
 122.5000        533
 122.6000        542
 122.7000        486
 122.8000        526
 122.9000        548
 123.0000        545
 123.1000        561
 123.2000        592
 123.3000        586
 123.4000        587
 123.5000        523
 123.6000        554
 123.7000        576
 123.8000        552
 123.9000        515
 124.0000        532
 124.1000        568
 124.2000        521
 124.3000        493
 124.4000        532
 124.5000        533
 124.6000        497
 124.7000        511
 124.8000        502
 124.9000        512
 125.0000        536
 125.1000        506
 125.2000        523
 125.3000        516
 125.4000        484
 125.5000        478
 125.6000        483
 125.7000        498
 125.8000        495
 125.9000        534
 126.0000        506
 126.1000        500
 126.2000        493
 126.3000        509
 126.4000        528
 126.5000        546
 126.6000        504
 126.7000        509
 126.8000        488
 126.9000        516
 127.0000        488
 127.1000        510
 127.2000        514
 127.3000        510
 127.4000        546
 127.5000        492
[...]
 129.1000        316
 129.2000        289
 129.3000        332
 129.4000        296
 129.5000        302
 129.6000        321
 129.7000        272
 129.8000        324
 129.9000        309
 130.0000        324

; Data for range 53
_DRIVE = COUPLED
_STEPTIME = 0.2
_STEPSIZE = 0.1
_STEPMODE = C
_START = 40
_THETA = 20
_2THETA = 40
_KHI = 80
_PHI = 0
_X = 0
_Y = -25
_Z = 0
_DETECTOR = 1
; Detector type : Scintillation counter
_HV = 687
_GAIN = 80
_LLD = 0.69
_ULD = 1.866
_DETECTORSLIT = unkn
_AUX1 = 0
_AUX2 = 0
_AUX3 = 0
_TIMESTARTED = 1.03e+004
_TEMP_RATE = -1
_TEMP_DELAY = -1
_KV = 35
_MA = 40
_RANGE_WL = 1.78897
_3DPLANE = 0
_V4_ADDITIONALDETECTOR = 0
_V4_D8_DIBNUM = 1
_V4_DETECTORNAME = "Detector 1"
_V4_TTLDETECTOR = None
_V4_DETECTORTYPE = 1
_V4_DETECTORFLAGS = 524545
_V4_DETECTORHV = 687
_V4_DETECTORGAIN = 80
_V4_DETECTORLLD1 = 0.69
_V4_DETECTORWW1 = 1.176
_V4_DETECTORLLD2 = 0
_V4_DETECTORWW2 = 0
_V4_DETECTORPS = 0
_V4_DETECTORDT = 0
_V4_DETECTORPILEUPTIME = 0
_V4_COUNTERS_MASK = 1
_V4_DRIVES_MASK = 0
_V4_ENCODERS_MASK = 0
_2THETACOUNTS = 1
; 2THETA  Cnt1_D1
  40.0000        137
  40.1000        165
  40.2000        156
  40.3000        127
  40.4000        158
  40.5000        155
  40.6000        129
  40.7000        162
  40.8000        144
  40.9000        145
  41.0000        128
  41.1000        151
  41.2000        169
  41.3000        150
  41.4000        121
  41.5000        153
  41.6000        140
  41.7000        149
  41.8000        138
  41.9000        154
  42.0000        173
  42.1000        146
  42.2000        149
  42.3000        142
  42.4000        125
  42.5000        162
  42.6000        153
  42.7000        161
  42.8000        163
  42.9000        165
  43.0000        189
  43.1000        183
  43.2000        218
  43.3000        213
  43.4000        227
  43.5000        205
  43.6000        214
  43.7000        199
  43.8000        206
  43.9000        210
  44.0000        190
  44.1000        189
  44.2000        173
  44.3000        166
  44.4000        169
  44.5000        161
  44.6000        166
  44.7000        153
  44.8000        177
  44.9000        163
  45.0000        151
  45.1000        167
  45.2000        138
  45.3000        150
  45.4000        157
  45.5000        147
  45.6000        162
  45.7000        157
  45.8000        141
  45.9000        157
  46.0000        163
  46.1000        131
  46.2000        154
  46.3000        174
  46.4000        163
  46.5000        164
  46.6000        161
  46.7000        171
  46.8000        150
  46.9000        168
  47.0000        166
  47.1000        153
  47.2000        169
  47.3000        169
  47.4000        154
  47.5000        178
  47.6000        170
  47.7000        161
  47.8000        165
  47.9000        147
  48.0000        161
  48.1000        146
  48.2000        183
  48.3000        156
  48.4000        165
  48.5000        176
  48.6000        152
  48.7000        134
  48.8000        165
  48.9000        179
  49.0000        175
  49.1000        170
  49.2000        168
  49.3000        169
  49.4000        199
  49.5000        193
  49.6000        183
  49.7000        161
  49.8000        180
  49.9000        167
  50.0000        205
  50.1000        195
  50.2000        222
  50.3000        194
  50.4000        204
  50.5000        235
  50.6000        244
  50.7000        248
  50.8000        278
  50.9000        286
  51.0000        285
  51.1000        312
  51.2000        312
  51.3000        287
  51.4000        371
  51.5000        376
  51.6000        455
  51.7000        461
  51.8000        548
  51.9000        644
  52.0000        659
  52.1000        745
  52.2000        736
  52.3000        700
  52.4000        743
  52.5000        726
  52.6000        680
  52.7000        573
  52.8000        540
  52.9000        486
  53.0000        388
  53.1000        375
  53.2000        294
  53.3000        243
  53.4000        197
  53.5000        198
  53.6000        175
  53.7000        183
  53.8000        190
  53.9000        207
  54.0000        180
  54.1000        195
  54.2000        202
  54.3000        195
  54.4000        193
  54.5000        187
  54.6000        191
  54.7000        197
  54.8000        185
  54.9000        169
  55.0000        201
  55.1000        189
  55.2000        190
  55.3000        203
  55.4000        200
  55.5000        183
  55.6000        188
  55.7000        186
  55.8000        179
  55.9000        181
  56.0000        182
  56.1000        192
  56.2000        202
  56.3000        195
  56.4000        171
  56.5000        198
  56.6000        204
  56.7000        198
  56.8000        170
  56.9000        179
  57.0000        189
  57.1000        184
  57.2000        182
  57.3000        183
  57.4000        170
  57.5000        188
  57.6000        183
  57.7000        192
  57.8000        172
  57.9000        203
  58.0000        201
  58.1000        192
  58.2000        171
  58.3000        182
  58.4000        202
  58.5000        199
  58.6000        221
  58.7000        208
  58.8000        202
  58.9000        214
  59.0000        173
  59.1000        182
  59.2000        194
  59.3000        204
  59.4000        208
  59.5000        200
  59.6000        218
  59.7000        206
  59.8000        182
  59.9000        191
  60.0000        207
  60.1000        216
  60.2000        199
  60.3000        208
  60.4000        170
  60.5000        190
  60.6000        187
  60.7000        173
  60.8000        199
  60.9000        204
  61.0000        171
  61.1000        217
  61.2000        156
  61.3000        208
  61.4000        206
  61.5000        201
  61.6000        165
  61.7000        187
  61.8000        195
  61.9000        215
  62.0000        192
  62.1000        210
  62.2000        214
  62.3000        211
  62.4000        191
  62.5000        191
  62.6000        199
  62.7000        176
  62.8000        200
  62.9000        205
  63.0000        179
  63.1000        212
  63.2000        195
  63.3000        203
  63.4000        187
  63.5000        174
  63.6000        223
  63.7000        177
  63.8000        199
  63.9000        216
  64.0000        200
  64.1000        186
  64.2000        191
  64.3000        192
  64.4000        217
  64.5000        182
  64.6000        200
  64.7000        206
  64.8000        192
  64.9000        184
  65.0000        191
  65.1000        197
  65.2000        204
  65.3000        203
  65.4000        209
  65.5000        215
  65.6000        181
  65.7000        195
  65.8000        203
  65.9000        195
  66.0000        224
  66.1000        182
  66.2000        207
  66.3000        210
  66.4000        191
  66.5000        214
  66.6000        219
  66.7000        178
  66.8000        193
  66.9000        217
  67.0000        204
  67.1000        231
  67.2000        194
  67.3000        177
  67.4000        215
  67.5000        189
  67.6000        196
  67.7000        192
  67.8000        210
  67.9000        198
  68.0000        202
  68.1000        229
  68.2000        173
  68.3000        228
  68.4000        179
  68.5000        192
  68.6000        203
  68.7000        218
  68.8000        192
  68.9000        231
  69.0000        196
  69.1000        205
  69.2000        224
  69.3000        184
  69.4000        193
  69.5000        190
  69.6000        206
  69.7000        203
  69.8000        203
  69.9000        212
  70.0000        218
  70.1000        211
  70.2000        220
  70.3000        200
  70.4000        210
  70.5000        218
  70.6000        213
  70.7000        224
  70.8000        206
  70.9000        194
  71.0000        197
  71.1000        234
  71.2000        214
  71.3000        189
  71.4000        232
  71.5000        215
  71.6000        221
  71.7000        229
  71.8000        225
  71.9000        196
  72.0000        224
  72.1000        210
  72.2000        236
  72.3000        205
  72.4000        218
  72.5000        233
  72.6000        198
  72.7000        212
  72.8000        228
  72.9000        215
  73.0000        237
  73.1000        196
  73.2000        233
  73.3000        225
  73.4000        195
  73.5000        245
  73.6000        222
  73.7000        235
  73.8000        240
  73.9000        215
  74.0000        221
  74.1000        225
  74.2000        237
  74.3000        241
  74.4000        247
  74.5000        225
  74.6000        253
  74.7000        241
  74.8000        229
  74.9000        224
  75.0000        233
  75.1000        231
  75.2000        234
  75.3000        244
  75.4000        237
  75.5000        226
  75.6000        247
  75.7000        245
  75.8000        220
  75.9000        237
  76.0000        225
  76.1000        228
  76.2000        240
  76.3000        263
  76.4000        265
  76.5000        246
  76.6000        264
  76.7000        272
  76.8000        255
  76.9000        289
  77.0000        255
  77.1000        293
  77.2000        273
  77.3000        256
  77.4000        248
  77.5000        241
  77.6000        269
  77.7000        243
  77.8000        208
  77.9000        275
  78.0000        261
  78.1000        247
  78.2000        228
  78.3000        253
  78.4000        217
  78.5000        216
  78.6000        228
  78.7000        260
  78.8000        245
  78.9000        230
  79.0000        266
  79.1000        259
  79.2000        226
  79.3000        262
  79.4000        220
  79.5000        255
  79.6000        228
  79.7000        227
  79.8000        239
  79.9000        241
  80.0000        246
  80.1000        236
  80.2000        226
  80.3000        259
  80.4000        228
  80.5000        228
  80.6000        252
  80.7000        228
  80.8000        213
  80.9000        262
  81.0000        247
  81.1000        221
  81.2000        237
  81.3000        266
  81.4000        244
  81.5000        249
  81.6000        239
  81.7000        254
  81.8000        237
  81.9000        252
  82.0000        241
  82.1000        247
  82.2000        246
  82.3000        253
  82.4000        248
  82.5000        250
  82.6000        219
  82.7000        247
  82.8000        236
  82.9000        268
  83.0000        256
  83.1000        225
  83.2000        246
  83.3000        260
  83.4000        272
  83.5000        241
  83.6000        238
  83.7000        227
  83.8000        260
  83.9000        221
  84.0000        244
  84.1000        256
  84.2000        239
  84.3000        236
  84.4000        249
  84.5000        244
  84.6000        278
  84.7000        260
  84.8000        244
  84.9000        268
  85.0000        229
  85.1000        275
  85.2000        270
  85.3000        248
  85.4000        263
  85.5000        249
  85.6000        244
  85.7000        252
  85.8000        264
  85.9000        269
  86.0000        277
  86.1000        263
  86.2000        238
  86.3000        281
  86.4000        279
  86.5000        247
  86.6000        280
  86.7000        282
  86.8000        270
  86.9000        290
  87.0000        220
  87.1000        266
  87.2000        257
  87.3000        269
  87.4000        286
  87.5000        289
  87.6000        271
  87.7000        256
  87.8000        293
  87.9000        278
  88.0000        267
  88.1000        267
  88.2000        248
  88.3000        314
  88.4000        281
  88.5000        288
  88.6000        295
  88.7000        254
  88.8000        268
  88.9000        306
  89.0000        243
  89.1000        274
  89.2000        268
  89.3000        262
  89.4000        293
  89.5000        285
  89.6000        275
  89.7000        293
  89.8000        293
  89.9000        279
  90.0000        270
  90.1000        298
  90.2000        306
  90.3000        280
  90.4000        270
  90.5000        267
  90.6000        267
  90.7000        282
  90.8000        268
  90.9000        285
  91.0000        280
  91.1000        264
  91.2000        269
  91.3000        238
  91.4000        296
  91.5000        277
  91.6000        290
  91.7000        256
  91.8000        252
  91.9000        305
  92.0000        271
  92.1000        286
  92.2000        272
  92.3000        280
  92.4000        274
  92.5000        271
  92.6000        263
  92.7000        275
  92.8000        261
  92.9000        259
  93.0000        312
  93.1000        296
  93.2000        288
  93.3000        297
  93.4000        255
  93.5000        288
  93.6000        290
  93.7000        279
  93.8000        246
  93.9000        268
  94.0000        306
  94.1000        302
  94.2000        288
  94.3000        263
  94.4000        266
  94.5000        288
  94.6000        322
  94.7000        277
  94.8000        297
  94.9000        313
  95.0000        264
  95.1000        263
  95.2000        265
  95.3000        280
  95.4000        282
  95.5000        289
  95.6000        271
  95.7000        308
  95.8000        304
  95.9000        287
  96.0000        304
  96.1000        277
  96.2000        328
  96.3000        298
  96.4000        299
  96.5000        279
  96.6000        277
  96.7000        246
  96.8000        275
  96.9000        281
  97.0000        287
  97.1000        328
  97.2000        306
  97.3000        309
  97.4000        301
  97.5000        283
  97.6000        289
  97.7000        306
  97.8000        322
  97.9000        351
  98.0000        301
  98.1000        316
  98.2000        359
  98.3000        365
  98.4000        351
  98.5000        385
  98.6000        442
  98.7000        469
  98.8000        464
  98.9000        477
  99.0000        537
  99.1000        503
  99.2000        508
  99.3000        491
  99.4000        548
  99.5000        450
  99.6000        483
  99.7000        433
  99.8000        487
  99.9000        404
 100.0000        435
 100.1000        414
 100.2000        383
 100.3000        388
 100.4000        349
 100.5000        329
 100.6000        331
 100.7000        337
 100.8000        321
 100.9000        325
 101.0000        301
 101.1000        295
 101.2000        298
 101.3000        318
 101.4000        309
 101.5000        313
 101.6000        287
 101.7000        305
 101.8000        327
 101.9000        303
 102.0000        327
 102.1000        322
 102.2000        331
 102.3000        291
 102.4000        306
 102.5000        292
 102.6000        322
 102.7000        332
 102.8000        311
 102.9000        322
 103.0000        300
 103.1000        301
 103.2000        293
 103.3000        293
 103.4000        301
 103.5000        291
 103.6000        307
 103.7000        306
 103.8000        317
 103.9000        280
 104.0000        329
 104.1000        304
 104.2000        306
 104.3000        305
 104.4000        287
 104.5000        297
 104.6000        290
 104.7000        306
 104.8000        308
 104.9000        284
 105.0000        303
 105.1000        293
 105.2000        271
 105.3000        298
 105.4000        315
 105.5000        356
 105.6000        340
 105.7000        340
 105.8000        298
 105.9000        310
 106.0000        291
 106.1000        320
 106.2000        282
 106.3000        326
 106.4000        343
 106.5000        343
 106.6000        311
 106.7000        307
 106.8000        319
 106.9000        338
 107.0000        349
 107.1000        301
 107.2000        302
 107.3000        309
 107.4000        305
 107.5000        321
 107.6000        326
 107.7000        310
 107.8000        319
 107.9000        314
 108.0000        301
 108.1000        293
 108.2000        272
 108.3000        324
 108.4000        333
 108.5000        314
 108.6000        357
 108.7000        344
 108.8000        301
 108.9000        311
 109.0000        318
 109.1000        320
 109.2000        303
 109.3000        314
 109.4000        360
 109.5000        312
 109.6000        296
 109.7000        315
 109.8000        324
 109.9000        343
 110.0000        336
 110.1000        308
 110.2000        324
 110.3000        330
 110.4000        352
 110.5000        317
 110.6000        323
 110.7000        340
 110.8000        353
 110.9000        365
 111.0000        326
 111.1000        324
 111.2000        334
 111.3000        338
 111.4000        335
 111.5000        340
 111.6000        329
 111.7000        333
 111.8000        366
 111.9000        329
 112.0000        323
 112.1000        363
 112.2000        350
 112.3000        333
 112.4000        292
 112.5000        303
 112.6000        318
 112.7000        341
 112.8000        330
 112.9000        321
 113.0000        338
 113.1000        294
 113.2000        332
 113.3000        317
 113.4000        325
 113.5000        331
 113.6000        333
 113.7000        300
 113.8000        323
 113.9000        319
 114.0000        350
 114.1000        345
 114.2000        311
 114.3000        301
 114.4000        314
 114.5000        350
 114.6000        303
 114.7000        354
 114.8000        317
 114.9000        335
 115.0000        347
 115.1000        313
 115.2000        333
 115.3000        333
 115.4000        337
 115.5000        347
 115.6000        337
 115.7000        344
 115.8000        350
 115.9000        332
 116.0000        333
 116.1000        306
 116.2000        304
 116.3000        305
 116.4000        386
 116.5000        355
 116.6000        376
 116.7000        336
 116.8000        346
 116.9000        319
 117.0000        340
 117.1000        371
 117.2000        325
 117.3000        320
 117.4000        307
 117.5000        336
 117.6000        305
 117.7000        326
 117.8000        355
 117.9000        340
 118.0000        374
 118.1000        341
 118.2000        340
 118.3000        327
 118.4000        356
 118.5000        346
 118.6000        381
 118.7000        335
 118.8000        324
 118.9000        343
 119.0000        361
 119.1000        362
 119.2000        341
 119.3000        376
 119.4000        336
 119.5000        336
 119.6000        323
 119.7000        324
 119.8000        328
 119.9000        319
 120.0000        343
 120.1000        367
 120.2000        321
 120.3000        321
 120.4000        313
 120.5000        344
 120.6000        337
 120.7000        335
 120.8000        322
 120.9000        320
 121.0000        362
 121.1000        348
 121.2000        315
 121.3000        355
 121.4000        352
 121.5000        334
 121.6000        350
 121.7000        365
 121.8000        308
 121.9000        356
 122.0000        356
 122.1000        335
 122.2000        318
 122.3000        334
 122.4000        370
 122.5000        359
 122.6000        352
 122.7000        378
 122.8000        385
 122.9000        400
 123.0000        434
 123.1000        405
 123.2000        453
 123.3000        464
 123.4000        426
 123.5000        432
 123.6000        417
 123.7000        414
 123.8000        435
 123.9000        438
 124.0000        377
 124.1000        404
 124.2000        387
 124.3000        371
 124.4000        370
 124.5000        369
 124.6000        334
 124.7000        344
 124.8000        341
 124.9000        351
 125.0000        301
 125.1000        312
 125.2000        318
 125.3000        317
 125.4000        333
 125.5000        331
 125.6000        328
 125.7000        342
 125.8000        334
 125.9000        320
 126.0000        348
 126.1000        307
 126.2000        305
 126.3000        333
 126.4000        350
 126.5000        314
 126.6000        330
 126.7000        334
 126.8000        322
 126.9000        331
 127.0000        300
 127.1000        358
 127.2000        329
 127.3000        319
 127.4000        342
 127.5000        324
 127.6000        344
 127.7000        310
 127.8000        316
 127.9000        309
 128.0000        332
 128.1000        316
 128.2000        374
 128.3000        312
 128.4000        337
 128.5000        330
 128.6000        327
 128.7000        327
 128.8000        309
 128.9000        347
 129.0000        349
 129.1000        310
 129.2000        328
 129.3000        287
 129.4000        327
 129.5000        328
 129.6000        318
 129.7000        342
 129.8000        334
 129.9000        309
 130.0000        352