File: exp_dat/old/exp_2013_11_11/06pct_50L.uxd
; (content of file C:\DIFFDAT1\GIFT\MDL\Seawoong Lee\20131104_MV8\equal_area_maxkhi080_n8_2th40_130_x25y-25_50L.RAW)
_FILEVERSION = 3
_SAMPLE =
_+SAMPLE =
_SITE = Korea
_USER = Admin
_GONIOMETER_CODE = 20
; Goniometer : D8 theta/2theta, stage : Unknown
_SAMPLE_CHANGER_CODE = 0
_ATTACHMENTS_CODE = 0
_GONIOMETER_RADIUS = 300
_FIXED_DIVSLIT = 1
_FIXED_SAMPLESLIT = 0
_SOLLER_SLITS = 2
_FIXED_DETSLIT = 0.1
_MONOCHROMATOR = 0
; Incident beam monochromator : None
_SOLLER_SLITS_2 = 2
_THIN_FILM = N
_BETA_FILTER = Y
_FIXED_ANTISLIT = 0.6
_ANALYZER_CODE = 0
; Received beam analyzer : None
_DATEMEASURED = "05-Nov-2013 13:09:24"
_WL_UNIT = A
_WL1 = 1.78897
_WL2 = 1.79285
_WL3 = 1.62079
_WLRATIO = 0.5
_ANODE = Co
_V4_INF_CREATOR = XRDWizard
_V4_INF_CREATOR_VERSION = V2.9.0.22
_V4_INF_WIZARD_VERSION = V2.9.0.22
_V4_INF_WIZARD_ADDINS = V2.9.0.22
_V4_INF_WIZARD_DOCTYPE = XRD
_V4_INF_OSUSER = Postech
_V4_INF_USER = Admin
_V4_INF_SITE = Korea

; Data for range 1
_DRIVE = COUPLED
_STEPTIME = 0.2
_STEPSIZE = 0.1
_STEPMODE = C
_START = 40
_THETA = 20
_2THETA = 40
_KHI = 0
_PHI = 0
_X = 25
_Y = -25
_Z = 0
_DETECTOR = 1
; Detector type : Scintillation counter
_HV = 687
_GAIN = 80
_LLD = 0.69
_ULD = 1.866
_DETECTORSLIT = unkn
_AUX1 = 0
_AUX2 = 0
_AUX3 = 0
_TIMESTARTED = 12
_TEMP_RATE = -1
_TEMP_DELAY = -1
_KV = 35
_MA = 40
_RANGE_WL = 1.78897
_3DPLANE = 0
_V4_ADDITIONALDETECTOR = 0
_V4_D8_DIBNUM = 1
_V4_DETECTORNAME = "Detector 1"
_V4_TTLDETECTOR = None
_V4_DETECTORTYPE = 1
_V4_DETECTORFLAGS = 524545
_V4_DETECTORHV = 687
_V4_DETECTORGAIN = 80
_V4_DETECTORLLD1 = 0.69
_V4_DETECTORWW1 = 1.176
_V4_DETECTORLLD2 = 0
_V4_DETECTORWW2 = 0
_V4_DETECTORPS = 0
_V4_DETECTORDT = 0
_V4_DETECTORPILEUPTIME = 0
_V4_COUNTERS_MASK = 1
_V4_DRIVES_MASK = 0
_V4_ENCODERS_MASK = 0
_2THETACOUNTS = 1
; 2THETA  Cnt1_D1
  40.0000        483
  40.1000        537
  40.2000        467
  40.3000        509
  40.4000        507
  40.5000        543
  40.6000        547
  40.7000        534
  40.8000        484
  40.9000        513
  41.0000        542
  41.1000        506
  41.2000        505
  41.3000        516
  41.4000        521
  41.5000        512
  41.6000        514
  41.7000        513
  41.8000        488
  41.9000        489
  42.0000        525
  42.1000        515
  42.2000        531
  42.3000        480
  42.4000        525
  42.5000        520
  42.6000        496
  42.7000        512
  42.8000        468
  42.9000        501
  43.0000        504
  43.1000        521
  43.2000        507
  43.3000        523
  43.4000        493
  43.5000        549
  43.6000        530
  43.7000        490
  43.8000        510
  43.9000        540
  44.0000        492
  44.1000        501
  44.2000        552
  44.3000        487
  44.4000        470
  44.5000        501
  44.6000        533
  44.7000        531
  44.8000        544
  44.9000        523
  45.0000        505
  45.1000        569
  45.2000        544
  45.3000        493
  45.4000        507
  45.5000        505
  45.6000        521
  45.7000        479
  45.8000        517
  45.9000        484
  46.0000        540
  46.1000        558
  46.2000        513
  46.3000        492
  46.4000        521
  46.5000        503
  46.6000        475
  46.7000        496
  46.8000        480
  46.9000        530
  47.0000        520
  47.1000        580
  47.2000        496
  47.3000        501
  47.4000        546
  47.5000        480
  47.6000        530
  47.7000        504
  47.8000        513
  47.9000        483
  48.0000        548
  48.1000        513
  48.2000        522
  48.3000        508
  48.4000        510
  48.5000        485
  48.6000        533
  48.7000        494
  48.8000        569
  48.9000        506
  49.0000        499
  49.1000        514
  49.2000        526
  49.3000        521
  49.4000        533
  49.5000        479
  49.6000        501
  49.7000        489
  49.8000        515
  49.9000        502
  50.0000        514
  50.1000        492
  50.2000        487
  50.3000        546
  50.4000        564
  50.5000        542
  50.6000        586
  50.7000        622
  50.8000        587
  50.9000        583
  51.0000        595
  51.1000        602
  51.2000        565
  51.3000        562
  51.4000        541
  51.5000        580
  51.6000        673
  51.7000        894
  51.8000       1066
  51.9000       1203
  52.0000       1227
  52.1000       1187
  52.2000       1136
  52.3000       1159
  52.4000       1052
  52.5000        990
  52.6000        848
  52.7000        636
  52.8000        590
  52.9000        527
  53.0000        494
  53.1000        511
  53.2000        519
  53.3000        512
  53.4000        485
  53.5000        488
  53.6000        513
  53.7000        560
  53.8000        507
  53.9000        508
  54.0000        498
  54.1000        509
  54.2000        524
  54.3000        532
  54.4000        501
  54.5000        510
  54.6000        510
  54.7000        542
  54.8000        531
  54.9000        463
  55.0000        536
  55.1000        494
  55.2000        494
  55.3000        474
  55.4000        494
  55.5000        580
  55.6000        487
  55.7000        530
  55.8000        516
  55.9000        490
  56.0000        505
  56.1000        501
  56.2000        516
  56.3000        505
  56.4000        516
  56.5000        510
  56.6000        482
  56.7000        536
  56.8000        503
  56.9000        489
  57.0000        530
  57.1000        500
  57.2000        493
  57.3000        465
  57.4000        497
  57.5000        520
  57.6000        554
  57.7000        515
  57.8000        516
  57.9000        500
  58.0000        527
  58.1000        529
  58.2000        513
  58.3000        511
  58.4000        512
  58.5000        535
  58.6000        527
  58.7000        513
  58.8000        508
  58.9000        494
  59.0000        563
  59.1000        512
  59.2000        544
  59.3000        568
  59.4000        551
  59.5000        594
  59.6000        581
  59.7000        605
  59.8000        585
  59.9000        567
  60.0000        514
  60.1000        564
  60.2000        504
  60.3000        465
  60.4000        499
  60.5000        478
  60.6000        513
  60.7000        527
  60.8000        486
  60.9000        541
  61.0000        500
  61.1000        483
  61.2000        531
  61.3000        520
  61.4000        501
  61.5000        541
  61.6000        490
  61.7000        490
  61.8000        508
  61.9000        511
  62.0000        518
  62.1000        485
  62.2000        503
  62.3000        532
  62.4000        503
  62.5000        517
  62.6000        489
  62.7000        485
  62.8000        525
  62.9000        521
  63.0000        508
  63.1000        535
  63.2000        571
  63.3000        506
  63.4000        502
  63.5000        512
  63.6000        534
  63.7000        501
  63.8000        486
  63.9000        479
  64.0000        541
  64.1000        490
  64.2000        517
  64.3000        565
  64.4000        512
  64.5000        502
  64.6000        532
  64.7000        506
  64.8000        503
  64.9000        512
  65.0000        511
  65.1000        498
  65.2000        519
  65.3000        513
  65.4000        475
  65.5000        541
  65.6000        553
  65.7000        532
  65.8000        506
  65.9000        511
  66.0000        461
  66.1000        514
  66.2000        515
  66.3000        522
  66.4000        547
  66.5000        526
  66.6000        533
  66.7000        506
  66.8000        499
  66.9000        506
  67.0000        499
  67.1000        486
  67.2000        504
  67.3000        521
  67.4000        525
  67.5000        450
  67.6000        518
  67.7000        507
  67.8000        509
  67.9000        481
  68.0000        531
  68.1000        481
  68.2000        488
  68.3000        532
  68.4000        491
  68.5000        495
  68.6000        483
  68.7000        463
  68.8000        547
  68.9000        512
  69.0000        510
  69.1000        491
  69.2000        484
  69.3000        487
  69.4000        506
  69.5000        542
  69.6000        502
  69.7000        502
  69.8000        482
  69.9000        517
  70.0000        499
  70.1000        494
  70.2000        489
  70.3000        446
  70.4000        480
  70.5000        501
  70.6000        496
  70.7000        513
  70.8000        510
  70.9000        524
  71.0000        544
  71.1000        480
  71.2000        494
  71.3000        493
  71.4000        498
  71.5000        488
  71.6000        462
  71.7000        498
  71.8000        476
  71.9000        513
  72.0000        538
  72.1000        488
  72.2000        518
  72.3000        485
  72.4000        521
  72.5000        489
  72.6000        545
  72.7000        542
  72.8000        492
  72.9000        537
  73.0000        512
  73.1000        522
  73.2000        542
  73.3000        510
  73.4000        501
  73.5000        524
  73.6000        528
  73.7000        447
  73.8000        493
  73.9000        491
  74.0000        516
  74.1000        487
  74.2000        490
  74.3000        555
  74.4000        518
  74.5000        488
  74.6000        494
  74.7000        506
  74.8000        450
  74.9000        491
  75.0000        507
  75.1000        514
  75.2000        507
  75.3000        471
  75.4000        522
  75.5000        464
  75.6000        542
  75.7000        474
  75.8000        479
  75.9000        516
  76.0000        525
  76.1000        549
  76.2000        554
  76.3000        520
  76.4000        643
  76.5000        755
  76.6000        815
  76.7000        930
  76.8000        934
  76.9000        955
  77.0000        989
  77.1000        891
  77.2000        873
  77.3000        790
  77.4000        740
  77.5000        637
  77.6000        622
  77.7000        540
  77.8000        516
  77.9000        536
  78.0000        514
  78.1000        507
  78.2000        480
  78.3000        524
  78.4000        526
  78.5000        526
  78.6000        541
  78.7000        472
  78.8000        524
  78.9000        513
  79.0000        526
  79.1000        501
  79.2000        533
  79.3000        520
  79.4000        509
  79.5000        498
  79.6000        511
  79.7000        537
  79.8000        492
  79.9000        510
  80.0000        518
  80.1000        483
  80.2000        508
  80.3000        513
  80.4000        477
  80.5000        517
  80.6000        463
  80.7000        504
  80.8000        525
  80.9000        499
  81.0000        512
  81.1000        544
  81.2000        508
  81.3000        502
  81.4000        514
  81.5000        521
  81.6000        505
  81.7000        486
  81.8000        500
  81.9000        494
  82.0000        502
  82.1000        486
  82.2000        455
  82.3000        465
  82.4000        517
  82.5000        518
  82.6000        563
  82.7000        525
  82.8000        466
  82.9000        481
  83.0000        506
  83.1000        483
  83.2000        546
  83.3000        530
  83.4000        479
  83.5000        492
  83.6000        487
  83.7000        519
  83.8000        509
  83.9000        478
  84.0000        486
  84.1000        495
  84.2000        534
  84.3000        527
  84.4000        504
  84.5000        521
  84.6000        513
  84.7000        508
  84.8000        529
  84.9000        509
  85.0000        533
  85.1000        490
  85.2000        488
  85.3000        477
  85.4000        499
  85.5000        501
  85.6000        509
  85.7000        493
  85.8000        518
  85.9000        505
  86.0000        516
  86.1000        490
  86.2000        483
  86.3000        500
  86.4000        462
  86.5000        500
  86.6000        490
  86.7000        506
  86.8000        503
  86.9000        526
  87.0000        517
  87.1000        545
  87.2000        476
  87.3000        492
  87.4000        496
  87.5000        541
  87.6000        503
  87.7000        485
  87.8000        518
  87.9000        500
  88.0000        498
  88.1000        471
  88.2000        528
  88.3000        525
  88.4000        505
  88.5000        572
  88.6000        553
  88.7000        531
  88.8000        603
  88.9000        658
  89.0000        720
  89.1000        715
  89.2000        724
  89.3000        722
  89.4000        734
  89.5000        722
  89.6000        692
  89.7000        614
  89.8000        547
  89.9000        557
  90.0000        559
  90.1000        498
  90.2000        556
  90.3000        511
  90.4000        572
  90.5000        490
  90.6000        534
  90.7000        479
  90.8000        489
  90.9000        508
  91.0000        508
  91.1000        491
  91.2000        522
  91.3000        520
  91.4000        498
  91.5000        522
  91.6000        509
  91.7000        490
  91.8000        518
  91.9000        500
  92.0000        523
  92.1000        474
  92.2000        506
  92.3000        529
  92.4000        497
  92.5000        467
  92.6000        539
  92.7000        517
  92.8000        516
  92.9000        517
  93.0000        513
  93.1000        469
  93.2000        468
  93.3000        502
  93.4000        537
  93.5000        484
  93.6000        541
  93.7000        512
  93.8000        504
  93.9000        505
  94.0000        495
  94.1000        507
  94.2000        497
  94.3000        481
  94.4000        491
  94.5000        496
  94.6000        514
  94.7000        479
  94.8000        487
  94.9000        531
  95.0000        498
  95.1000        471
  95.2000        518
  95.3000        509
  95.4000        509
  95.5000        522
  95.6000        544
  95.7000        554
  95.8000        469
  95.9000        535
  96.0000        478
  96.1000        508
  96.2000        514
  96.3000        495
  96.4000        492
  96.5000        506
  96.6000        513
  96.7000        488
  96.8000        480
  96.9000        498
  97.0000        544
  97.1000        501
  97.2000        531
  97.3000        514
  97.4000        462
  97.5000        534
  97.6000        529
  97.7000        495
  97.8000        531
  97.9000        541
  98.0000        575
  98.1000        555
  98.2000        530
  98.3000        514
  98.4000        516
  98.5000        555
  98.6000        573
  98.7000        738
  98.8000        858
  98.9000       1127
  99.0000       1271
  99.1000       1396
  99.2000       1440
  99.3000       1511
  99.4000       1553
  99.5000       1560
  99.6000       1409
  99.7000       1253
  99.8000       1094
  99.9000        918
 100.0000        717
 100.1000        627
 100.2000        573
 100.3000        509
 100.4000        530
 100.5000        522
 100.6000        562
 100.7000        484
 100.8000        512
 100.9000        514
 101.0000        544
 101.1000        517
 101.2000        563
 101.3000        509
 101.4000        471
 101.5000        505
 101.6000        522
 101.7000        513
 101.8000        473
 101.9000        494
 102.0000        486
 102.1000        546
 102.2000        536
 102.3000        469
 102.4000        481
 102.5000        499
 102.6000        552
 102.7000        502
 102.8000        552
 102.9000        520
 103.0000        521
 103.1000        481
 103.2000        553
 103.3000        537
 103.4000        513
 103.5000        533
 103.6000        511
 103.7000        494
 103.8000        568
 103.9000        504
 104.0000        535
 104.1000        554
 104.2000        529
 104.3000        525
 104.4000        500
 104.5000        490
 104.6000        494
 104.7000        518
 104.8000        522
 104.9000        545
 105.0000        470
 105.1000        558
 105.2000        501
 105.3000        534
 105.4000        522
 105.5000        529
 105.6000        488
 105.7000        514
 105.8000        486
 105.9000        473
 106.0000        524
 106.1000        520
 106.2000        527
 106.3000        517
 106.4000        524
 106.5000        526
 106.6000        496
 106.7000        494
 106.8000        512
 106.9000        494
 107.0000        496
 107.1000        479
 107.2000        533
 107.3000        490
 107.4000        502
 107.5000        538
 107.6000        489
 107.7000        529
 107.8000        507
 107.9000        510
 108.0000        493
 108.1000        512
 108.2000        539
 108.3000        511
 108.4000        530
 108.5000        486
 108.6000        510
 108.7000        519
 108.8000        517
 108.9000        507
 109.0000        490
 109.1000        496
 109.2000        522
 109.3000        503
 109.4000        518
 109.5000        498
 109.6000        498
 109.7000        579
 109.8000        526
 109.9000        517
 110.0000        504
 110.1000        570
 110.2000        509
 110.3000        522
 110.4000        586
 110.5000        584
 110.6000        597
 110.7000        612
 110.8000        567
 110.9000        596
 111.0000        603
 111.1000        599
 111.2000        602
 111.3000        587
 111.4000        589
 111.5000        540
 111.6000        536
 111.7000        547
 111.8000        467
 111.9000        503
 112.0000        511
 112.1000        545
 112.2000        519
 112.3000        521
 112.4000        540
 112.5000        493
 112.6000        481
 112.7000        491
 112.8000        524
 112.9000        490
 113.0000        484
 113.1000        540
 113.2000        555
 113.3000        551
 113.4000        504
 113.5000        505
 113.6000        556
 113.7000        504
 113.8000        498
 113.9000        479
 114.0000        504
 114.1000        530
 114.2000        493
 114.3000        517
 114.4000        488
 114.5000        485
 114.6000        494
 114.7000        499
 114.8000        497
 114.9000        460
 115.0000        531
 115.1000        533
 115.2000        495
 115.3000        537
 115.4000        515
 115.5000        526
 115.6000        450
 115.7000        485
 115.8000        477
 115.9000        472
 116.0000        478
 116.1000        529
 116.2000        520
 116.3000        500
 116.4000        459
 116.5000        493
 116.6000        485
 116.7000        494
 116.8000        465
 116.9000        527
 117.0000        501
 117.1000        491
 117.2000        495
 117.3000        489
 117.4000        525
 117.5000        532
 117.6000        507
 117.7000        496
 117.8000        478
 117.9000        520
 118.0000        506
 118.1000        524
 118.2000        493
 118.3000        515
 118.4000        535
 118.5000        525
 118.6000        530
 118.7000        553
 118.8000        489
 118.9000        519
 119.0000        496
 119.1000        481
 119.2000        491
 119.3000        507
 119.4000        478
 119.5000        513
 119.6000        543
 119.7000        486
 119.8000        499
 119.9000        482
 120.0000        560
 120.1000        495
 120.2000        540
 120.3000        516
 120.4000        512
 120.5000        511
 120.6000        505
 120.7000        480
 120.8000        467
 120.9000        509
 121.0000        543
 121.1000        533
 121.2000        547
 121.3000        497
 121.4000        517
 121.5000        499
 121.6000        506
 121.7000        480
 121.8000        472
 121.9000        506
 122.0000        479
 122.1000        512
 122.2000        476
 122.3000        471
 122.4000        483
 122.5000        489
 122.6000        523
 122.7000        507
 122.8000        518
 122.9000        568
 123.0000        545
 123.1000        570
 123.2000        548
 123.3000        553
 123.4000        557
 123.5000        556
 123.6000        565
 123.7000        549
 123.8000        576
 123.9000        490
 124.0000        564
 124.1000        503
 124.2000        515
 124.3000        489
 124.4000        510
 124.5000        531
 124.6000        502
 124.7000        491
 124.8000        468
 124.9000        519
 125.0000        506
 125.1000        520
 125.2000        493
 125.3000        466
 125.4000        469
 125.5000        547
 125.6000        494
 125.7000        548
 125.8000        534
 125.9000        480
 126.0000        508
 126.1000        493
 126.2000        520
 126.3000        501
 126.4000        509
 126.5000        544
 126.6000        500
 126.7000        482
 126.8000        481
 126.9000        510
 127.0000        481
 127.1000        571
 127.2000        509
 127.3000        504
 127.4000        471
 127.5000        512
 127.6000        532
 127.7000        483
 127.8000        485
 127.9000        556
 128.0000        537
 128.1000        501
 128.2000        466
 128.3000        541
 128.4000        483
 128.5000        534
 128.6000        505
 128.7000        554
 128.8000        520
 128.9000        449
 129.0000        490
 129.1000        457
 129.2000        493
 129.3000        504
 129.4000        516
 129.5000        523
 129.6000        511
 129.7000        544
 129.8000        514
 129.9000        510
 130.0000        530

; Data for range 2
_DRIVE = COUPLED
_STEPTIME = 0.2
_STEPSIZE = 0.1
_STEPMODE = C
_START = 40
_THETA = 20
_2THETA = 40
_KHI = 10.5
_PHI = 60
_X = 25
_Y = -25
_Z = 0
_DETECTOR = 1
; Detector type : Scintillation counter
_HV = 687
_GAIN = 80
_LLD = 0.69
_ULD = 1.866
_DETECTORSLIT = unkn
_AUX1 = 0
_AUX2 = 0
_AUX3 = 0
_TIMESTARTED = 210
_TEMP_RATE = -1
_TEMP_DELAY = -1
_KV = 35
_MA = 40
_RANGE_WL = 1.78897
_3DPLANE = 0
_V4_ADDITIONALDETECTOR = 0
_V4_D8_DIBNUM = 1
_V4_DETECTORNAME = "Detector 1"
_V4_TTLDETECTOR = None
_V4_DETECTORTYPE = 1
_V4_DETECTORFLAGS = 524545
_V4_DETECTORHV = 687
_V4_DETECTORGAIN = 80
_V4_DETECTORLLD1 = 0.69
_V4_DETECTORWW1 = 1.176
_V4_DETECTORLLD2 = 0
_V4_DETECTORWW2 = 0
_V4_DETECTORPS = 0
_V4_DETECTORDT = 0
_V4_DETECTORPILEUPTIME = 0
_V4_COUNTERS_MASK = 1
_V4_DRIVES_MASK = 0
_V4_ENCODERS_MASK = 0
_2THETACOUNTS = 1
; 2THETA  Cnt1_D1
  40.0000        516
  40.1000        531
  40.2000        558
  40.3000        515
  40.4000        562
  40.5000        539
  40.6000        534
  40.7000        496
  40.8000        527
  40.9000        503
  41.0000        546
  41.1000        518
  41.2000        517
  41.3000        527
  41.4000        533
  41.5000        507
  41.6000        503
  41.7000        563
  41.8000        537
  41.9000        477
  42.0000        525
  42.1000        526
  42.2000        548
  42.3000        571
  42.4000        503
  42.5000        512
  42.6000        514
  42.7000        505
  42.8000        514
  42.9000        545
  43.0000        519
  43.1000        511
  43.2000        536
  43.3000        483
  43.4000        507
  43.5000        530
  43.6000        540
  43.7000        535
  43.8000        560
  43.9000        560
  44.0000        485
  44.1000        503
  44.2000        556
  44.3000        521
  44.4000        470
  44.5000        510
  44.6000        519
  44.7000        553
  44.8000        550
  44.9000        528
  45.0000        530
  45.1000        526
  45.2000        554
  45.3000        530
  45.4000        492
  45.5000        501
  45.6000        551
  45.7000        511
  45.8000        517
  45.9000        557
  46.0000        518
  46.1000        523
  46.2000        493
  46.3000        494
  46.4000        525
  46.5000        522
  46.6000        533
  46.7000        540
  46.8000        511
  46.9000        497
  47.0000        540
  47.1000        535
  47.2000        495
  47.3000        503
  47.4000        521
  47.5000        538
  47.6000        491
  47.7000        537
  47.8000        571
  47.9000        548
  48.0000        465
  48.1000        530
  48.2000        531
  48.3000        511
  48.4000        549
  48.5000        499
  48.6000        524
  48.7000        510
  48.8000        524
  48.9000        537
  49.0000        551
  49.1000        536
  49.2000        479
  49.3000        491
  49.4000        562
  49.5000        492
  49.6000        511
  49.7000        536
  49.8000        513
  49.9000        547
  50.0000        486
  50.1000        540
  50.2000        568
  50.3000        553
  50.4000        589
  50.5000        630
  50.6000        660
  50.7000        666
  50.8000        629
  50.9000        649
  51.0000        725
  51.1000        648
  51.2000        675
  51.3000        599
  51.4000        555
  51.5000        597
  51.6000        689
  51.7000        795
  51.8000       1037
  51.9000       1142
  52.0000       1194
  52.1000       1208
  52.2000       1167
  52.3000       1104
  52.4000       1142
  52.5000       1068
  52.6000        894
  52.7000        748
  52.8000        562
  52.9000        561
  53.0000        509
  53.1000        585
  53.2000        552
  53.3000        553
  53.4000        510
  53.5000        506
  53.6000        502
  53.7000        520
  53.8000        556
  53.9000        537
  54.0000        514
  54.1000        508
  54.2000        528
  54.3000        543
  54.4000        547
  54.5000        518
  54.6000        562
  54.7000        522
  54.8000        489
  54.9000        510
  55.0000        564
  55.1000        500
  55.2000        475
  55.3000        475
  55.4000        516
  55.5000        531
  55.6000        505
  55.7000        559
  55.8000        532
  55.9000        527
  56.0000        499
  56.1000        521
  56.2000        467
  56.3000        474
  56.4000        525
  56.5000        509
  56.6000        527
  56.7000        513
  56.8000        546
  56.9000        495
  57.0000        533
  57.1000        516
  57.2000        520
  57.3000        524
  57.4000        555
  57.5000        529
  57.6000        514
  57.7000        526
  57.8000        478
  57.9000        511
  58.0000        514
  58.1000        496
  58.2000        516
  58.3000        537
  58.4000        493
  58.5000        504
  58.6000        509
  58.7000        486
  58.8000        502
  58.9000        488
  59.0000        549
  59.1000        595
  59.2000        607
  59.3000        598
  59.4000        581
  59.5000        576
  59.6000        611
  59.7000        567
  59.8000        576
  59.9000        558
  60.0000        507
  60.1000        515
  60.2000        531
  60.3000        521
  60.4000        526
  60.5000        487
  60.6000        501
  60.7000        508
  60.8000        536
  60.9000        516
  61.0000        539
  61.1000        475
  61.2000        506
  61.3000        516
  61.4000        561
  61.5000        536
  61.6000        524
  61.7000        507
  61.8000        538
  61.9000        528
  62.0000        508
  62.1000        530
  62.2000        515
  62.3000        523
  62.4000        543
  62.5000        485
  62.6000        524
  62.7000        533
  62.8000        527
  62.9000        499
  63.0000        529
  63.1000        553
  63.2000        504
  63.3000        493
  63.4000        493
  63.5000        537
  63.6000        487
  63.7000        524
  63.8000        525
  63.9000        480
  64.0000        535
  64.1000        531
  64.2000        494
  64.3000        526
  64.4000        513
  64.5000        483
  64.6000        457
  64.7000        501
  64.8000        491
  64.9000        504
  65.0000        505
  65.1000        496
  65.2000        513
  65.3000        520
  65.4000        491
  65.5000        507
  65.6000        530
  65.7000        516
  65.8000        483
  65.9000        541
  66.0000        509
  66.1000        468
  66.2000        517
  66.3000        513
  66.4000        485
  66.5000        528
  66.6000        502
  66.7000        490
  66.8000        502
  66.9000        477
  67.0000        468
  67.1000        537
  67.2000        458
  67.3000        487
  67.4000        522
  67.5000        513
  67.6000        489
  67.7000        514
  67.8000        524
  67.9000        585
  68.0000        493
  68.1000        532
  68.2000        495
  68.3000        451
  68.4000        550
  68.5000        508
  68.6000        438
  68.7000        495
  68.8000        517
  68.9000        492
  69.0000        466
  69.1000        501
  69.2000        497
  69.3000        513
  69.4000        489
  69.5000        506
  69.6000        512
  69.7000        530
  69.8000        510
  69.9000        494
  70.0000        535
  70.1000        474
  70.2000        493
  70.3000        500
  70.4000        480
  70.5000        524
  70.6000        531
  70.7000        494
  70.8000        497
  70.9000        515
  71.0000        515
  71.1000        534
  71.2000        517
  71.3000        519
  71.4000        469
  71.5000        482
  71.6000        542
  71.7000        532
  71.8000        514
  71.9000        479
  72.0000        524
  72.1000        546
  72.2000        561
  72.3000        497
  72.4000        503
  72.5000        470
  72.6000        536
  72.7000        501
  72.8000        502
  72.9000        500
  73.0000        530
  73.1000        495
  73.2000        496
  73.3000        510
  73.4000        504
  73.5000        542
  73.6000        537
  73.7000        485
  73.8000        527
  73.9000        514
  74.0000        542
  74.1000        494
  74.2000        525
  74.3000        500
  74.4000        466
  74.5000        518
  74.6000        486
  74.7000        488
  74.8000        515
  74.9000        487
  75.0000        493
  75.1000        487
  75.2000        545
  75.3000        486
  75.4000        474
  75.5000        482
  75.6000        488
  75.7000        496
  75.8000        554
  75.9000        525
  76.0000        502
  76.1000        503
  76.2000        536
  76.3000        541
  76.4000        556
  76.5000        633
  76.6000        662
  76.7000        734
  76.8000        716
  76.9000        647
  77.0000        658
  77.1000        663
  77.2000        636
  77.3000        607
  77.4000        592
  77.5000        564
  77.6000        502
  77.7000        502
  77.8000        496
  77.9000        491
  78.0000        487
  78.1000        489
  78.2000        529
  78.3000        549
  78.4000        474
  78.5000        483
  78.6000        516
  78.7000        517
  78.8000        489
  78.9000        533
  79.0000        552
  79.1000        505
  79.2000        488
  79.3000        494
  79.4000        475
  79.5000        527
  79.6000        522
  79.7000        502
  79.8000        493
  79.9000        489
  80.0000        489
  80.1000        537
  80.2000        426
  80.3000        517
  80.4000        519
  80.5000        492
  80.6000        487
  80.7000        498
  80.8000        520
  80.9000        487
  81.0000        512
  81.1000        473
  81.2000        495
  81.3000        477
  81.4000        490
  81.5000        496
  81.6000        486
  81.7000        476
  81.8000        491
  81.9000        488
  82.0000        489
  82.1000        475
  82.2000        484
  82.3000        519
  82.4000        512
  82.5000        463
  82.6000        502
  82.7000        503
  82.8000        458
  82.9000        483
  83.0000        514
  83.1000        488
  83.2000        517
  83.3000        488
  83.4000        502
  83.5000        481
  83.6000        487
  83.7000        494
  83.8000        532
  83.9000        497
  84.0000        487
  84.1000        481
  84.2000        471
  84.3000        480
  84.4000        480
  84.5000        506
  84.6000        502
  84.7000        480
  84.8000        483
  84.9000        505
  85.0000        478
  85.1000        498
  85.2000        543
  85.3000        479
  85.4000        522
  85.5000        507
  85.6000        512
  85.7000        517
  85.8000        558
  85.9000        491
  86.0000        582
  86.1000        566
  86.2000        526
  86.3000        461
  86.4000        529
  86.5000        533
  86.6000        518
  86.7000        502
  86.8000        515
  86.9000        488
  87.0000        533
  87.1000        516
  87.2000        503
  87.3000        506
  87.4000        486
  87.5000        498
  87.6000        499
  87.7000        470
  87.8000        522
  87.9000        467
  88.0000        540
  88.1000        481
  88.2000        547
  88.3000        531
  88.4000        528
  88.5000        517
  88.6000        556
  88.7000        527
  88.8000        564
  88.9000        538
  89.0000        585
  89.1000        651
  89.2000        633
  89.3000        605
  89.4000        572
  89.5000        601
  89.6000        629
  89.7000        531
  89.8000        546
  89.9000        559
  90.0000        542
  90.1000        556
  90.2000        494
  90.3000        481
  90.4000        528
  90.5000        552
  90.6000        495
  90.7000        513
  90.8000        529
  90.9000        527
  91.0000        495
  91.1000        501
  91.2000        491
  91.3000        498
  91.4000        493
  91.5000        481
  91.6000        481
  91.7000        474
  91.8000        524
  91.9000        540
  92.0000        523
  92.1000        527
  92.2000        527
  92.3000        519
  92.4000        504
  92.5000        522
  92.6000        475
  92.7000        492
  92.8000        474
  92.9000        455
  93.0000        513
  93.1000        485
  93.2000        552
  93.3000        505
  93.4000        531
  93.5000        488
  93.6000        490
  93.7000        538
  93.8000        457
  93.9000        499
  94.0000        533
  94.1000        510
  94.2000        513
  94.3000        489
  94.4000        518
  94.5000        492
  94.6000        507
  94.7000        471
  94.8000        533
  94.9000        528
  95.0000        519
  95.1000        514
  95.2000        540
  95.3000        468
  95.4000        472
  95.5000        483
  95.6000        489
  95.7000        507
  95.8000        476
  95.9000        515
  96.0000        525
  96.1000        508
  96.2000        500
  96.3000        483
  96.4000        495
  96.5000        485
  96.6000        495
  96.7000        531
  96.8000        481
  96.9000        539
  97.0000        535
  97.1000        529
  97.2000        460
  97.3000        511
  97.4000        515
  97.5000        468
  97.6000        506
  97.7000        502
  97.8000        511
  97.9000        508
  98.0000        508
  98.1000        478
  98.2000        534
  98.3000        512
  98.4000        515
  98.5000        491
  98.6000        570
  98.7000        604
  98.8000        678
  98.9000        735
  99.0000        883
  99.1000        885
  99.2000        976
  99.3000       1041
  99.4000       1068
  99.5000       1014
  99.6000        958
  99.7000        922
  99.8000        793
  99.9000        723
 100.0000        630
 100.1000        577
 100.2000        523
 100.3000        555
 100.4000        551
 100.5000        528
 100.6000        553
 100.7000        550
 100.8000        523
 100.9000        496
 101.0000        486
 101.1000        517
 101.2000        536
 101.3000        524
 101.4000        496
 101.5000        462
 101.6000        486
 101.7000        510
 101.8000        507
 101.9000        507
 102.0000        493
 102.1000        525
 102.2000        560
 102.3000        469
 102.4000        506
 102.5000        530
 102.6000        443
 102.7000        515
 102.8000        511
 102.9000        526
 103.0000        535
 103.1000        477
 103.2000        535
 103.3000        513
 103.4000        522
 103.5000        516
 103.6000        535
 103.7000        503
 103.8000        491
 103.9000        558
 104.0000        488
 104.1000        522
 104.2000        523
 104.3000        536
 104.4000        495
 104.5000        511
 104.6000        527
 104.7000        489
 104.8000        503
 104.9000        532
 105.0000        507
 105.1000        487
 105.2000        504
 105.3000        478
 105.4000        489
 105.5000        503
 105.6000        492
 105.7000        501
 105.8000        496
 105.9000        505
 106.0000        518
 106.1000        497
 106.2000        507
 106.3000        501
 106.4000        508
 106.5000        489
 106.6000        493
 106.7000        498
 106.8000        491
 106.9000        521
 107.0000        509
 107.1000        502
 107.2000        512
 107.3000        528
 107.4000        527
 107.5000        513
 107.6000        489
 107.7000        468
 107.8000        554
 107.9000        495
 108.0000        526
 108.1000        526
 108.2000        508
 108.3000        536
 108.4000        481
 108.5000        499
 108.6000        506
 108.7000        494
 108.8000        499
 108.9000        535
 109.0000        508
 109.1000        481
 109.2000        476
 109.3000        488
 109.4000        533
 109.5000        513
 109.6000        519
 109.7000        499
 109.8000        525
 109.9000        518
 110.0000        473
 110.1000        498
 110.2000        493
 110.3000        532
 110.4000        578
 110.5000        533
 110.6000        571
 110.7000        569
 110.8000        575
 110.9000        584
 111.0000        573
 111.1000        589
 111.2000        555
 111.3000        553
 111.4000        574
 111.5000        547
 111.6000        505
 111.7000        547
 111.8000        471
 111.9000        519
 112.0000        496
 112.1000        525
 112.2000        543
 112.3000        470
 112.4000        486
 112.5000        527
 112.6000        503
 112.7000        501
 112.8000        517
 112.9000        516
 113.0000        546
 113.1000        516
 113.2000        533
 113.3000        498
 113.4000        528
 113.5000        501
 113.6000        490
 113.7000        490
 113.8000        468
 113.9000        506
 114.0000        536
 114.1000        528
 114.2000        510
 114.3000        511
 114.4000        517
 114.5000        500
 114.6000        470
 114.7000        524
 114.8000        512
 114.9000        510
 115.0000        491
 115.1000        478
 115.2000        512
 115.3000        534
 115.4000        505
 115.5000        522
 115.6000        501
 115.7000        491
 115.8000        484
 115.9000        489
 116.0000        474
 116.1000        492
 116.2000        495
 116.3000        539
 116.4000        536
 116.5000        497
 116.6000        505
 116.7000        502
 116.8000        484
 116.9000        528
 117.0000        527
 117.1000        514
 117.2000        507
 117.3000        529
 117.4000        485
 117.5000        506
 117.6000        501
 117.7000        480
 117.8000        498
 117.9000        514
 118.0000        454
 118.1000        491
 118.2000        493
 118.3000        497
 118.4000        502
 118.5000        519
 118.6000        524
 118.7000        508
 118.8000        543
 118.9000        560
 119.0000        475
 119.1000        468
 119.2000        515
 119.3000        531
 119.4000        467
 119.5000        493
 119.6000        509
 119.7000        513
 119.8000        497
 119.9000        495
 120.0000        495
 120.1000        513
 120.2000        519
 120.3000        518
 120.4000        442
 120.5000        511
 120.6000        495
 120.7000        485
 120.8000        509
 120.9000        506
 121.0000        514
 121.1000        505
 121.2000        522
 121.3000        513
 121.4000        545
 121.5000        543
 121.6000        487
 121.7000        515
 121.8000        527
 121.9000        485
 122.0000        495
 122.1000        483
 122.2000        485
 122.3000        488
 122.4000        466
 122.5000        518
 122.6000        482
 122.7000        486
 122.8000        567
 122.9000        543
 123.0000        544
 123.1000        582
 123.2000        512
 123.3000        625
 123.4000        589
 123.5000        592
 123.6000        563
 123.7000        604
 123.8000        564
 123.9000        537
 124.0000        534
 124.1000        567
 124.2000        512
 124.3000        525
 124.4000        486
 124.5000        520
 124.6000        477
 124.7000        490
 124.8000        516
 124.9000        531
 125.0000        549
 125.1000        512
 125.2000        465
 125.3000        494
 125.4000        485
 125.5000        539
 125.6000        566
 125.7000        518
 125.8000        526
 125.9000        518
 126.0000        483
 126.1000        505
 126.2000        494
 126.3000        483
 126.4000        511
 126.5000        479
 126.6000        497
 126.7000        485
 126.8000        479
 126.9000        479
 127.0000        486
 127.1000        483
 127.2000        513
 127.3000        506
 127.4000        535
 127.5000        525
[...]
 129.2000        353
 129.3000        390
 129.4000        359
 129.5000        341
 129.6000        346
 129.7000        397
 129.8000        353
 129.9000        369
 130.0000        370

; Data for range 53
_DRIVE = COUPLED
_STEPTIME = 0.2
_STEPSIZE = 0.1
_STEPMODE = C
_START = 40
_THETA = 20
_2THETA = 40
_KHI = 80
_PHI = 0
_X = 25
_Y = -25
_Z = 0
_DETECTOR = 1
; Detector type : Scintillation counter
_HV = 687
_GAIN = 80
_LLD = 0.69
_ULD = 1.866
_DETECTORSLIT = unkn
_AUX1 = 0
_AUX2 = 0
_AUX3 = 0
_TIMESTARTED = 1.028e+004
_TEMP_RATE = -1
_TEMP_DELAY = -1
_KV = 35
_MA = 40
_RANGE_WL = 1.78897
_3DPLANE = 0
_V4_ADDITIONALDETECTOR = 0
_V4_D8_DIBNUM = 1
_V4_DETECTORNAME = "Detector 1"
_V4_TTLDETECTOR = None
_V4_DETECTORTYPE = 1
_V4_DETECTORFLAGS = 524545
_V4_DETECTORHV = 687
_V4_DETECTORGAIN = 80
_V4_DETECTORLLD1 = 0.69
_V4_DETECTORWW1 = 1.176
_V4_DETECTORLLD2 = 0
_V4_DETECTORWW2 = 0
_V4_DETECTORPS = 0
_V4_DETECTORDT = 0
_V4_DETECTORPILEUPTIME = 0
_V4_COUNTERS_MASK = 1
_V4_DRIVES_MASK = 0
_V4_ENCODERS_MASK = 0
_2THETACOUNTS = 1
; 2THETA  Cnt1_D1
  40.0000        130
  40.1000        165
  40.2000        162
  40.3000        155
  40.4000        145
  40.5000        161
  40.6000        160
  40.7000        177
  40.8000        179
  40.9000        144
  41.0000        202
  41.1000        151
  41.2000        150
  41.3000        175
  41.4000        176
  41.5000        174
  41.6000        150
  41.7000        163
  41.8000        165
  41.9000        156
  42.0000        155
  42.1000        154
  42.2000        161
  42.3000        164
  42.4000        162
  42.5000        177
  42.6000        127
  42.7000        175
  42.8000        172
  42.9000        168
  43.0000        183
  43.1000        205
  43.2000        192
  43.3000        230
  43.4000        239
  43.5000        235
  43.6000        231
  43.7000        225
  43.8000        210
  43.9000        220
  44.0000        211
  44.1000        197
  44.2000        189
  44.3000        174
  44.4000        174
  44.5000        143
  44.6000        160
  44.7000        175
  44.8000        152
  44.9000        154
  45.0000        181
  45.1000        162
  45.2000        183
  45.3000        164
  45.4000        188
  45.5000        146
  45.6000        189
  45.7000        176
  45.8000        180
  45.9000        179
  46.0000        161
  46.1000        180
  46.2000        186
  46.3000        173
  46.4000        198
  46.5000        183
  46.6000        201
  46.7000        159
  46.8000        178
  46.9000        156
  47.0000        195
  47.1000        170
  47.2000        182
  47.3000        179
  47.4000        177
  47.5000        166
  47.6000        186
  47.7000        177
  47.8000        178
  47.9000        177
  48.0000        183
  48.1000        171
  48.2000        168
  48.3000        167
  48.4000        184
  48.5000        190
  48.6000        199
  48.7000        187
  48.8000        198
  48.9000        187
  49.0000        187
  49.1000        172
  49.2000        173
  49.3000        192
  49.4000        201
  49.5000        184
  49.6000        191
  49.7000        192
  49.8000        206
  49.9000        174
  50.0000        228
  50.1000        230
  50.2000        248
  50.3000        256
  50.4000        291
  50.5000        276
  50.6000        312
  50.7000        381
  50.8000        336
  50.9000        355
  51.0000        393
  51.1000        353
  51.2000        363
  51.3000        362
  51.4000        400
  51.5000        446
  51.6000        498
  51.7000        542
  51.8000        624
  51.9000        705
  52.0000        707
  52.1000        749
  52.2000        698
  52.3000        734
  52.4000        740
  52.5000        736
  52.6000        667
  52.7000        602
  52.8000        551
  52.9000        497
  53.0000        481
  53.1000        450
  53.2000        431
  53.3000        320
  53.4000        265
  53.5000        231
  53.6000        193
  53.7000        206
  53.8000        204
  53.9000        196
  54.0000        201
  54.1000        202
  54.2000        205
  54.3000        192
  54.4000        190
  54.5000        218
  54.6000        206
  54.7000        173
  54.8000        202
  54.9000        190
  55.0000        219
  55.1000        220
  55.2000        208
  55.3000        221
  55.4000        190
  55.5000        175
  55.6000        234
  55.7000        212
  55.8000        204
  55.9000        228
  56.0000        227
  56.1000        218
  56.2000        227
  56.3000        207
  56.4000        214
  56.5000        185
  56.6000        213
  56.7000        192
  56.8000        198
  56.9000        217
  57.0000        213
  57.1000        207
  57.2000        218
  57.3000        197
  57.4000        212
  57.5000        181
  57.6000        212
  57.7000        213
  57.8000        216
  57.9000        208
  58.0000        242
  58.1000        216
  58.2000        178
  58.3000        227
  58.4000        210
  58.5000        190
  58.6000        182
  58.7000        226
  58.8000        211
  58.9000        215
  59.0000        212
  59.1000        240
  59.2000        235
  59.3000        236
  59.4000        216
  59.5000        260
  59.6000        236
  59.7000        237
  59.8000        269
  59.9000        249
  60.0000        244
  60.1000        252
  60.2000        214
  60.3000        207
  60.4000        234
  60.5000        225
  60.6000        234
  60.7000        221
  60.8000        202
  60.9000        219
  61.0000        221
  61.1000        204
  61.2000        204
  61.3000        224
  61.4000        238
  61.5000        232
  61.6000        198
  61.7000        213
  61.8000        236
  61.9000        220
  62.0000        221
  62.1000        221
  62.2000        247
  62.3000        208
  62.4000        224
  62.5000        199
  62.6000        217
  62.7000        224
  62.8000        216
  62.9000        229
  63.0000        222
  63.1000        216
  63.2000        229
  63.3000        213
  63.4000        228
  63.5000        222
  63.6000        235
  63.7000        193
  63.8000        205
  63.9000        207
  64.0000        220
  64.1000        213
  64.2000        226
  64.3000        213
  64.4000        233
  64.5000        211
  64.6000        206
  64.7000        245
  64.8000        207
  64.9000        220
  65.0000        239
  65.1000        253
  65.2000        237
  65.3000        239
  65.4000        239
  65.5000        247
  65.6000        207
  65.7000        251
  65.8000        234
  65.9000        211
  66.0000        209
  66.1000        219
  66.2000        238
  66.3000        228
  66.4000        246
  66.5000        189
  66.6000        226
  66.7000        239
  66.8000        213
  66.9000        232
  67.0000        258
  67.1000        228
  67.2000        206
  67.3000        214
  67.4000        221
  67.5000        251
  67.6000        224
  67.7000        223
  67.8000        202
  67.9000        227
  68.0000        203
  68.1000        220
  68.2000        231
  68.3000        209
  68.4000        233
  68.5000        248
  68.6000        215
  68.7000        274
  68.8000        217
  68.9000        223
  69.0000        223
  69.1000        221
  69.2000        258
  69.3000        251
  69.4000        257
  69.5000        235
  69.6000        250
  69.7000        264
  69.8000        244
  69.9000        218
  70.0000        245
  70.1000        217
  70.2000        244
  70.3000        240
  70.4000        234
  70.5000        245
  70.6000        242
  70.7000        256
  70.8000        250
  70.9000        223
  71.0000        212
  71.1000        264
  71.2000        259
  71.3000        237
  71.4000        235
  71.5000        226
  71.6000        236
  71.7000        211
  71.8000        278
  71.9000        225
  72.0000        223
  72.1000        247
  72.2000        241
  72.3000        264
  72.4000        239
  72.5000        252
  72.6000        230
  72.7000        239
  72.8000        228
  72.9000        276
  73.0000        246
  73.1000        231
  73.2000        228
  73.3000        237
  73.4000        236
  73.5000        255
  73.6000        235
  73.7000        249
  73.8000        248
  73.9000        219
  74.0000        232
  74.1000        252
  74.2000        248
  74.3000        249
  74.4000        255
  74.5000        253
  74.6000        254
  74.7000        260
  74.8000        272
  74.9000        266
  75.0000        259
  75.1000        274
  75.2000        273
  75.3000        252
  75.4000        256
  75.5000        240
  75.6000        272
  75.7000        254
  75.8000        264
  75.9000        262
  76.0000        236
  76.1000        273
  76.2000        283
  76.3000        293
  76.4000        320
  76.5000        339
  76.6000        269
  76.7000        339
  76.8000        324
  76.9000        303
  77.0000        316
  77.1000        300
  77.2000        292
  77.3000        276
  77.4000        257
  77.5000        308
  77.6000        286
  77.7000        276
  77.8000        272
  77.9000        256
  78.0000        264
  78.1000        240
  78.2000        255
  78.3000        271
  78.4000        273
  78.5000        271
  78.6000        246
  78.7000        265
  78.8000        259
  78.9000        290
  79.0000        256
  79.1000        303
  79.2000        244
  79.3000        288
  79.4000        274
  79.5000        282
  79.6000        264
  79.7000        269
  79.8000        233
  79.9000        242
  80.0000        264
  80.1000        270
  80.2000        255
  80.3000        268
  80.4000        247
  80.5000        256
  80.6000        290
  80.7000        268
  80.8000        248
  80.9000        254
  81.0000        283
  81.1000        259
  81.2000        294
  81.3000        274
  81.4000        255
  81.5000        245
  81.6000        303
  81.7000        282
  81.8000        261
  81.9000        261
  82.0000        241
  82.1000        297
  82.2000        250
  82.3000        256
  82.4000        243
  82.5000        289
  82.6000        269
  82.7000        278
  82.8000        245
  82.9000        279
  83.0000        248
  83.1000        269
  83.2000        277
  83.3000        244
  83.4000        261
  83.5000        286
  83.6000        282
  83.7000        295
  83.8000        297
  83.9000        285
  84.0000        270
  84.1000        305
  84.2000        274
  84.3000        283
  84.4000        299
  84.5000        283
  84.6000        260
  84.7000        268
  84.8000        288
  84.9000        286
  85.0000        304
  85.1000        290
  85.2000        306
  85.3000        283
  85.4000        267
  85.5000        280
  85.6000        283
  85.7000        311
  85.8000        300
  85.9000        256
  86.0000        293
  86.1000        286
  86.2000        280
  86.3000        282
  86.4000        252
  86.5000        250
  86.6000        277
  86.7000        318
  86.8000        312
  86.9000        267
  87.0000        283
  87.1000        290
  87.2000        284
  87.3000        302
  87.4000        281
  87.5000        289
  87.6000        288
  87.7000        278
  87.8000        302
  87.9000        289
  88.0000        280
  88.1000        272
  88.2000        288
  88.3000        276
  88.4000        284
  88.5000        313
  88.6000        297
  88.7000        296
  88.8000        330
  88.9000        334
  89.0000        300
  89.1000        309
  89.2000        337
  89.3000        289
  89.4000        321
  89.5000        311
  89.6000        340
  89.7000        301
  89.8000        314
  89.9000        327
  90.0000        296
  90.1000        304
  90.2000        310
  90.3000        301
  90.4000        289
  90.5000        286
  90.6000        287
  90.7000        298
  90.8000        314
  90.9000        328
  91.0000        333
  91.1000        316
  91.2000        325
  91.3000        284
  91.4000        291
  91.5000        328
  91.6000        303
  91.7000        304
  91.8000        314
  91.9000        298
  92.0000        297
  92.1000        301
  92.2000        289
  92.3000        302
  92.4000        313
  92.5000        303
  92.6000        334
  92.7000        297
  92.8000        296
  92.9000        285
  93.0000        320
  93.1000        279
  93.2000        283
  93.3000        319
  93.4000        285
  93.5000        282
  93.6000        275
  93.7000        334
  93.8000        316
  93.9000        330
  94.0000        305
  94.1000        295
  94.2000        300
  94.3000        318
  94.4000        276
  94.5000        310
  94.6000        334
  94.7000        300
  94.8000        304
  94.9000        293
  95.0000        302
  95.1000        303
  95.2000        294
  95.3000        313
  95.4000        324
  95.5000        333
  95.6000        304
  95.7000        283
  95.8000        314
  95.9000        318
  96.0000        321
  96.1000        296
  96.2000        321
  96.3000        314
  96.4000        335
  96.5000        296
  96.6000        314
  96.7000        317
  96.8000        281
  96.9000        321
  97.0000        331
  97.1000        316
  97.2000        327
  97.3000        308
  97.4000        345
  97.5000        300
  97.6000        319
  97.7000        357
  97.8000        304
  97.9000        310
  98.0000        340
  98.1000        352
  98.2000        356
  98.3000        391
  98.4000        371
  98.5000        398
  98.6000        417
  98.7000        465
  98.8000        493
  98.9000        472
  99.0000        498
  99.1000        495
  99.2000        488
  99.3000        466
  99.4000        494
  99.5000        442
  99.6000        467
  99.7000        483
  99.8000        476
  99.9000        455
 100.0000        437
 100.1000        419
 100.2000        432
 100.3000        406
 100.4000        356
 100.5000        377
 100.6000        338
 100.7000        314
 100.8000        299
 100.9000        315
 101.0000        353
 101.1000        324
 101.2000        309
 101.3000        323
 101.4000        339
 101.5000        347
 101.6000        335
 101.7000        308
 101.8000        340
 101.9000        315
 102.0000        340
 102.1000        348
 102.2000        310
 102.3000        336
 102.4000        303
 102.5000        331
 102.6000        326
 102.7000        324
 102.8000        317
 102.9000        314
 103.0000        313
 103.1000        357
 103.2000        323
 103.3000        336
 103.4000        296
 103.5000        318
 103.6000        312
 103.7000        316
 103.8000        329
 103.9000        291
 104.0000        336
 104.1000        361
 104.2000        338
 104.3000        314
 104.4000        337
 104.5000        321
 104.6000        308
 104.7000        333
 104.8000        330
 104.9000        339
 105.0000        391
 105.1000        340
 105.2000        341
 105.3000        344
 105.4000        344
 105.5000        348
 105.6000        313
 105.7000        296
 105.8000        316
 105.9000        326
 106.0000        313
 106.1000        307
 106.2000        325
 106.3000        299
 106.4000        334
 106.5000        314
 106.6000        328
 106.7000        295
 106.8000        350
 106.9000        340
 107.0000        383
 107.1000        335
 107.2000        352
 107.3000        343
 107.4000        336
 107.5000        357
 107.6000        377
 107.7000        366
 107.8000        343
 107.9000        348
 108.0000        368
 108.1000        336
 108.2000        364
 108.3000        339
 108.4000        359
 108.5000        320
 108.6000        348
 108.7000        345
 108.8000        342
 108.9000        352
 109.0000        337
 109.1000        346
 109.2000        372
 109.3000        341
 109.4000        352
 109.5000        357
 109.6000        353
 109.7000        343
 109.8000        353
 109.9000        329
 110.0000        365
 110.1000        344
 110.2000        340
 110.3000        324
 110.4000        352
 110.5000        413
 110.6000        412
 110.7000        373
 110.8000        376
 110.9000        377
 111.0000        372
 111.1000        393
 111.2000        383
 111.3000        315
 111.4000        399
 111.5000        350
 111.6000        334
 111.7000        387
 111.8000        367
 111.9000        376
 112.0000        333
 112.1000        345
 112.2000        346
 112.3000        339
 112.4000        341
 112.5000        338
 112.6000        361
 112.7000        392
 112.8000        363
 112.9000        330
 113.0000        357
 113.1000        322
 113.2000        361
 113.3000        369
 113.4000        343
 113.5000        364
 113.6000        326
 113.7000        349
 113.8000        308
 113.9000        336
 114.0000        333
 114.1000        352
 114.2000        337
 114.3000        369
 114.4000        359
 114.5000        339
 114.6000        391
 114.7000        333
 114.8000        372
 114.9000        338
 115.0000        348
 115.1000        331
 115.2000        321
 115.3000        367
 115.4000        347
 115.5000        369
 115.6000        358
 115.7000        360
 115.8000        353
 115.9000        378
 116.0000        363
 116.1000        354
 116.2000        340
 116.3000        421
 116.4000        343
 116.5000        360
 116.6000        317
 116.7000        351
 116.8000        340
 116.9000        365
 117.0000        342
 117.1000        339
 117.2000        384
 117.3000        368
 117.4000        388
 117.5000        366
 117.6000        382
 117.7000        398
 117.8000        395
 117.9000        364
 118.0000        345
 118.1000        417
 118.2000        377
 118.3000        420
 118.4000        371
 118.5000        368
 118.6000        364
 118.7000        384
 118.8000        378
 118.9000        360
 119.0000        373
 119.1000        372
 119.2000        371
 119.3000        350
 119.4000        344
 119.5000        358
 119.6000        380
 119.7000        362
 119.8000        382
 119.9000        345
 120.0000        348
 120.1000        363
 120.2000        355
 120.3000        355
 120.4000        369
 120.5000        345
 120.6000        370
 120.7000        340
 120.8000        341
 120.9000        333
 121.0000        333
 121.1000        361
 121.2000        332
 121.3000        359
 121.4000        371
 121.5000        372
 121.6000        377
 121.7000        359
 121.8000        326
 121.9000        371
 122.0000        348
 122.1000        412
 122.2000        372
 122.3000        420
 122.4000        435
 122.5000        435
 122.6000        431
 122.7000        438
 122.8000        472
 122.9000        431
 123.0000        465
 123.1000        472
 123.2000        519
 123.3000        415
 123.4000        474
 123.5000        478
 123.6000        496
 123.7000        436
 123.8000        427
 123.9000        461
 124.0000        434
 124.1000        449
 124.2000        426
 124.3000        432
 124.4000        393
 124.5000        363
 124.6000        374
 124.7000        378
 124.8000        397
 124.9000        385
 125.0000        382
 125.1000        388
 125.2000        315
 125.3000        355
 125.4000        356
 125.5000        369
 125.6000        368
 125.7000        355
 125.8000        372
 125.9000        388
 126.0000        367
 126.1000        366
 126.2000        362
 126.3000        349
 126.4000        388
 126.5000        359
 126.6000        377
 126.7000        350
 126.8000        331
 126.9000        370
 127.0000        327
 127.1000        362
 127.2000        356
 127.3000        342
 127.4000        325
 127.5000        351
 127.6000        362
 127.7000        323
 127.8000        357
 127.9000        352
 128.0000        378
 128.1000        367
 128.2000        385
 128.3000        371
 128.4000        342
 128.5000        369
 128.6000        349
 128.7000        337
 128.8000        319
 128.9000        371
 129.0000        320
 129.1000        378
 129.2000        386
 129.3000        354
 129.4000        362
 129.5000        354
 129.6000        383
 129.7000        376
 129.8000        352
 129.9000        390
 130.0000        361