File: exp_dat/old/exp_2013_11_11/08pct_40L.uxd
; (content of file C:\DIFFDAT1\GIFT\MDL\Seawoong Lee\20131104_MV8\equal_area_maxkhi080_n8_2th40_130_x25y-25_40L.raw)
_FILEVERSION = 3
_SAMPLE =
_+SAMPLE =
_SITE = Korea
_USER = Admin
_GONIOMETER_CODE = 20
; Goniometer : D8 theta/2theta, stage : Unknown
_SAMPLE_CHANGER_CODE = 0
_ATTACHMENTS_CODE = 0
_GONIOMETER_RADIUS = 300
_FIXED_DIVSLIT = 1
_FIXED_SAMPLESLIT = 0
_SOLLER_SLITS = 2
_FIXED_DETSLIT = 0.1
_MONOCHROMATOR = 0
; Incident beam monochromator : None
_SOLLER_SLITS_2 = 2
_THIN_FILM = N
_BETA_FILTER = Y
_FIXED_ANTISLIT = 0.6
_ANALYZER_CODE = 0
; Received beam analyzer : None
_DATEMEASURED = "06-Nov-2013 13:17:20"
_WL_UNIT = A
_WL1 = 1.78897
_WL2 = 1.79285
_WL3 = 1.62079
_WLRATIO = 0.5
_ANODE = Co
_V4_INF_CREATOR = XRDWizard
_V4_INF_CREATOR_VERSION = V2.9.0.22
_V4_INF_WIZARD_VERSION = V2.9.0.22
_V4_INF_WIZARD_ADDINS = V2.9.0.22
_V4_INF_WIZARD_DOCTYPE = XRD
_V4_INF_OSUSER = Postech
_V4_INF_USER = Admin
_V4_INF_SITE = Korea

; Data for range 1
_DRIVE = COUPLED
_STEPTIME = 0.2
_STEPSIZE = 0.1
_STEPMODE = C
_START = 40
_THETA = 20
_2THETA = 40
_KHI = 0
_PHI = 0
_X = 25
_Y = -25
_Z = 0
_DETECTOR = 1
; Detector type : Scintillation counter
_HV = 687
_GAIN = 80
_LLD = 0.69
_ULD = 1.866
_DETECTORSLIT = unkn
_AUX1 = 0
_AUX2 = 0
_AUX3 = 0
_TIMESTARTED = 11
_TEMP_RATE = -1
_TEMP_DELAY = -1
_KV = 35
_MA = 40
_RANGE_WL = 1.78897
_3DPLANE = 0
_V4_ADDITIONALDETECTOR = 0
_V4_D8_DIBNUM = 1
_V4_DETECTORNAME = "Detector 1"
_V4_TTLDETECTOR = None
_V4_DETECTORTYPE = 1
_V4_DETECTORFLAGS = 524545
_V4_DETECTORHV = 687
_V4_DETECTORGAIN = 80
_V4_DETECTORLLD1 = 0.69
_V4_DETECTORWW1 = 1.176
_V4_DETECTORLLD2 = 0
_V4_DETECTORWW2 = 0
_V4_DETECTORPS = 0
_V4_DETECTORDT = 0
_V4_DETECTORPILEUPTIME = 0
_V4_COUNTERS_MASK = 1
_V4_DRIVES_MASK = 0
_V4_ENCODERS_MASK = 0
_2THETACOUNTS = 1
; 2THETA  Cnt1_D1
  40.0000        532
  40.1000        547
  40.2000        514
  40.3000        501
  40.4000        505
  40.5000        502
  40.6000        524
  40.7000        474
  40.8000        476
  40.9000        530
  41.0000        528
  41.1000        535
  41.2000        530
  41.3000        500
  41.4000        523
  41.5000        544
  41.6000        498
  41.7000        498
  41.8000        510
  41.9000        501
  42.0000        527
  42.1000        518
  42.2000        506
  42.3000        462
  42.4000        529
  42.5000        486
  42.6000        513
  42.7000        548
  42.8000        540
  42.9000        493
  43.0000        493
  43.1000        477
  43.2000        499
  43.3000        537
  43.4000        548
  43.5000        501
  43.6000        529
  43.7000        518
  43.8000        525
  43.9000        559
  44.0000        519
  44.1000        488
  44.2000        494
  44.3000        504
  44.4000        591
  44.5000        556
  44.6000        516
  44.7000        522
  44.8000        489
  44.9000        511
  45.0000        504
  45.1000        547
  45.2000        530
  45.3000        512
  45.4000        518
  45.5000        555
  45.6000        505
  45.7000        524
  45.8000        502
  45.9000        583
  46.0000        537
  46.1000        528
  46.2000        523
  46.3000        517
  46.4000        525
  46.5000        538
  46.6000        517
  46.7000        533
  46.8000        516
  46.9000        521
  47.0000        528
  47.1000        480
  47.2000        499
  47.3000        512
  47.4000        500
  47.5000        533
  47.6000        502
  47.7000        550
  47.8000        499
  47.9000        496
  48.0000        510
  48.1000        492
  48.2000        500
  48.3000        532
  48.4000        518
  48.5000        539
  48.6000        471
  48.7000        507
  48.8000        474
  48.9000        502
  49.0000        496
  49.1000        495
  49.2000        533
  49.3000        486
  49.4000        494
  49.5000        531
  49.6000        500
  49.7000        510
  49.8000        545
  49.9000        533
  50.0000        484
  50.1000        557
  50.2000        482
  50.3000        522
  50.4000        542
  50.5000        572
  50.6000        603
  50.7000        613
  50.8000        610
  50.9000        607
  51.0000        637
  51.1000        602
  51.2000        622
  51.3000        566
  51.4000        576
  51.5000        615
  51.6000        804
  51.7000       1078
  51.8000       1350
  51.9000       1582
  52.0000       1609
  52.1000       1607
  52.2000       1536
  52.3000       1417
  52.4000       1344
  52.5000       1176
  52.6000        899
  52.7000        706
  52.8000        555
  52.9000        584
  53.0000        548
  53.1000        564
  53.2000        529
  53.3000        532
  53.4000        527
  53.5000        523
  53.6000        540
  53.7000        507
  53.8000        544
  53.9000        508
  54.0000        537
  54.1000        542
  54.2000        522
  54.3000        516
  54.4000        535
  54.5000        529
  54.6000        521
  54.7000        482
  54.8000        541
  54.9000        500
  55.0000        516
  55.1000        548
  55.2000        513
  55.3000        510
  55.4000        514
  55.5000        530
  55.6000        523
  55.7000        500
  55.8000        521
  55.9000        546
  56.0000        503
  56.1000        515
  56.2000        476
  56.3000        500
  56.4000        565
  56.5000        501
  56.6000        539
  56.7000        506
  56.8000        512
  56.9000        531
  57.0000        522
  57.1000        520
  57.2000        518
  57.3000        507
  57.4000        526
  57.5000        533
  57.6000        522
  57.7000        521
  57.8000        526
  57.9000        519
  58.0000        528
  58.1000        486
  58.2000        479
  58.3000        522
  58.4000        503
  58.5000        512
  58.6000        521
  58.7000        546
  58.8000        535
  58.9000        508
  59.0000        493
  59.1000        572
  59.2000        527
  59.3000        544
  59.4000        578
  59.5000        544
  59.6000        605
  59.7000        555
  59.8000        593
  59.9000        578
  60.0000        557
  60.1000        600
  60.2000        535
  60.3000        530
  60.4000        534
  60.5000        532
  60.6000        547
  60.7000        502
  60.8000        545
  60.9000        523
  61.0000        488
  61.1000        515
  61.2000        510
  61.3000        517
  61.4000        530
  61.5000        484
  61.6000        513
  61.7000        536
  61.8000        541
  61.9000        512
  62.0000        549
  62.1000        504
  62.2000        506
  62.3000        561
  62.4000        514
  62.5000        527
  62.6000        495
  62.7000        517
  62.8000        496
  62.9000        498
  63.0000        534
  63.1000        526
  63.2000        477
  63.3000        525
  63.4000        546
  63.5000        525
  63.6000        509
  63.7000        504
  63.8000        544
  63.9000        472
  64.0000        491
  64.1000        536
  64.2000        552
  64.3000        513
  64.4000        491
  64.5000        549
  64.6000        501
  64.7000        506
  64.8000        518
  64.9000        531
  65.0000        499
  65.1000        492
  65.2000        484
  65.3000        532
  65.4000        475
  65.5000        482
  65.6000        482
  65.7000        497
  65.8000        538
  65.9000        500
  66.0000        513
  66.1000        489
  66.2000        443
  66.3000        504
  66.4000        523
  66.5000        540
  66.6000        523
  66.7000        518
  66.8000        512
  66.9000        458
  67.0000        536
  67.1000        497
  67.2000        557
  67.3000        469
  67.4000        485
  67.5000        529
  67.6000        474
  67.7000        511
  67.8000        501
  67.9000        463
  68.0000        496
  68.1000        510
  68.2000        534
  68.3000        490
  68.4000        513
  68.5000        528
  68.6000        476
  68.7000        516
  68.8000        494
  68.9000        500
  69.0000        527
  69.1000        477
  69.2000        488
  69.3000        498
  69.4000        539
  69.5000        523
  69.6000        545
  69.7000        538
  69.8000        521
  69.9000        503
  70.0000        504
  70.1000        489
  70.2000        476
  70.3000        505
  70.4000        520
  70.5000        463
  70.6000        504
  70.7000        486
  70.8000        462
  70.9000        502
  71.0000        512
  71.1000        523
  71.2000        494
  71.3000        459
  71.4000        522
  71.5000        483
  71.6000        510
  71.7000        516
  71.8000        526
  71.9000        528
  72.0000        517
  72.1000        503
  72.2000        540
  72.3000        497
  72.4000        509
  72.5000        542
  72.6000        515
  72.7000        497
  72.8000        544
  72.9000        504
  73.0000        502
  73.1000        519
  73.2000        503
  73.3000        548
  73.4000        498
  73.5000        474
  73.6000        477
  73.7000        495
  73.8000        540
  73.9000        510
  74.0000        477
  74.1000        517
  74.2000        496
  74.3000        484
  74.4000        507
  74.5000        508
  74.6000        460
  74.7000        446
  74.8000        483
  74.9000        495
  75.0000        560
  75.1000        491
  75.2000        475
  75.3000        466
  75.4000        525
  75.5000        536
  75.6000        467
  75.7000        503
  75.8000        525
  75.9000        489
  76.0000        521
  76.1000        521
  76.2000        540
  76.3000        630
  76.4000        720
  76.5000        819
  76.6000        912
  76.7000        971
  76.8000        923
  76.9000       1085
  77.0000        982
  77.1000        970
  77.2000        841
  77.3000        815
  77.4000        701
  77.5000        653
  77.6000        579
  77.7000        548
  77.8000        518
  77.9000        515
  78.0000        497
  78.1000        524
  78.2000        503
  78.3000        509
  78.4000        521
  78.5000        488
  78.6000        516
  78.7000        514
  78.8000        484
  78.9000        502
  79.0000        478
  79.1000        473
  79.2000        506
  79.3000        484
  79.4000        516
  79.5000        542
  79.6000        535
  79.7000        518
  79.8000        487
  79.9000        524
  80.0000        510
  80.1000        516
  80.2000        532
  80.3000        490
  80.4000        516
  80.5000        565
  80.6000        457
  80.7000        462
  80.8000        558
  80.9000        517
  81.0000        464
  81.1000        487
  81.2000        503
  81.3000        509
  81.4000        522
  81.5000        491
  81.6000        520
  81.7000        518
  81.8000        481
  81.9000        501
  82.0000        509
  82.1000        535
  82.2000        488
  82.3000        512
  82.4000        535
  82.5000        535
  82.6000        529
  82.7000        496
  82.8000        534
  82.9000        494
  83.0000        487
  83.1000        499
  83.2000        544
  83.3000        525
  83.4000        510
  83.5000        510
  83.6000        526
  83.7000        483
  83.8000        498
  83.9000        514
  84.0000        519
  84.1000        529
  84.2000        484
  84.3000        528
  84.4000        504
  84.5000        498
  84.6000        517
  84.7000        468
  84.8000        509
  84.9000        532
  85.0000        500
  85.1000        494
  85.2000        523
  85.3000        533
  85.4000        497
  85.5000        510
  85.6000        509
  85.7000        518
  85.8000        552
  85.9000        510
  86.0000        538
  86.1000        518
  86.2000        538
  86.3000        458
  86.4000        519
  86.5000        514
  86.6000        519
  86.7000        520
  86.8000        550
  86.9000        495
  87.0000        478
  87.1000        525
  87.2000        532
  87.3000        511
  87.4000        471
  87.5000        505
  87.6000        492
  87.7000        492
  87.8000        509
  87.9000        523
  88.0000        513
  88.1000        552
  88.2000        495
  88.3000        543
  88.4000        496
  88.5000        498
  88.6000        573
  88.7000        555
  88.8000        592
  88.9000        667
  89.0000        662
  89.1000        690
  89.2000        731
  89.3000        729
  89.4000        749
  89.5000        739
  89.6000        681
  89.7000        685
  89.8000        618
  89.9000        600
  90.0000        566
  90.1000        533
  90.2000        535
  90.3000        525
  90.4000        518
  90.5000        531
  90.6000        502
  90.7000        468
  90.8000        520
  90.9000        529
  91.0000        503
  91.1000        506
  91.2000        523
  91.3000        542
  91.4000        480
  91.5000        504
  91.6000        488
  91.7000        522
  91.8000        564
  91.9000        499
  92.0000        520
  92.1000        481
  92.2000        488
  92.3000        563
  92.4000        516
  92.5000        509
  92.6000        470
  92.7000        506
  92.8000        484
  92.9000        540
  93.0000        494
  93.1000        488
  93.2000        465
  93.3000        525
  93.4000        507
  93.5000        543
  93.6000        514
  93.7000        523
  93.8000        494
  93.9000        506
  94.0000        507
  94.1000        543
  94.2000        559
  94.3000        515
  94.4000        515
  94.5000        491
  94.6000        509
  94.7000        502
  94.8000        469
  94.9000        534
  95.0000        512
  95.1000        439
  95.2000        493
  95.3000        514
  95.4000        495
  95.5000        522
  95.6000        512
  95.7000        517
  95.8000        513
  95.9000        532
  96.0000        483
  96.1000        513
  96.2000        509
  96.3000        510
  96.4000        504
  96.5000        481
  96.6000        526
  96.7000        516
  96.8000        552
  96.9000        523
  97.0000        498
  97.1000        502
  97.2000        488
  97.3000        525
  97.4000        502
  97.5000        498
  97.6000        517
  97.7000        515
  97.8000        528
  97.9000        512
  98.0000        461
  98.1000        455
  98.2000        510
  98.3000        487
  98.4000        557
  98.5000        563
  98.6000        591
  98.7000        701
  98.8000        831
  98.9000        912
  99.0000       1040
  99.1000       1066
  99.2000       1211
  99.3000       1226
  99.4000       1299
  99.5000       1239
  99.6000       1186
  99.7000       1089
  99.8000        867
  99.9000        798
 100.0000        689
 100.1000        599
 100.2000        505
 100.3000        570
 100.4000        514
 100.5000        522
 100.6000        509
 100.7000        524
 100.8000        495
 100.9000        534
 101.0000        515
 101.1000        522
 101.2000        513
 101.3000        506
 101.4000        541
 101.5000        504
 101.6000        518
 101.7000        470
 101.8000        541
 101.9000        462
 102.0000        504
 102.1000        505
 102.2000        517
 102.3000        511
 102.4000        517
 102.5000        476
 102.6000        533
 102.7000        486
 102.8000        508
 102.9000        506
 103.0000        511
 103.1000        554
 103.2000        484
 103.3000        509
 103.4000        532
 103.5000        499
 103.6000        488
 103.7000        522
 103.8000        511
 103.9000        492
 104.0000        536
 104.1000        499
 104.2000        509
 104.3000        485
 104.4000        490
 104.5000        485
 104.6000        513
 104.7000        541
 104.8000        480
 104.9000        492
 105.0000        515
 105.1000        531
 105.2000        506
 105.3000        550
 105.4000        523
 105.5000        491
 105.6000        525
 105.7000        578
 105.8000        512
 105.9000        502
 106.0000        539
 106.1000        478
 106.2000        520
 106.3000        502
 106.4000        475
 106.5000        474
 106.6000        513
 106.7000        534
 106.8000        512
 106.9000        503
 107.0000        525
 107.1000        476
 107.2000        507
 107.3000        494
 107.4000        518
 107.5000        534
 107.6000        494
 107.7000        505
 107.8000        497
 107.9000        494
 108.0000        513
 108.1000        505
 108.2000        534
 108.3000        504
 108.4000        540
 108.5000        514
 108.6000        502
 108.7000        510
 108.8000        520
 108.9000        505
 109.0000        499
 109.1000        524
 109.2000        516
 109.3000        483
 109.4000        491
 109.5000        505
 109.6000        522
 109.7000        531
 109.8000        501
 109.9000        465
 110.0000        510
 110.1000        512
 110.2000        514
 110.3000        556
 110.4000        553
 110.5000        587
 110.6000        554
 110.7000        583
 110.8000        585
 110.9000        594
 111.0000        597
 111.1000        614
 111.2000        635
 111.3000        704
 111.4000        554
 111.5000        551
 111.6000        552
 111.7000        628
 111.8000        522
 111.9000        512
 112.0000        492
 112.1000        499
 112.2000        563
 112.3000        519
 112.4000        508
 112.5000        520
 112.6000        544
 112.7000        537
 112.8000        487
 112.9000        492
 113.0000        488
 113.1000        512
 113.2000        522
 113.3000        515
 113.4000        511
 113.5000        535
 113.6000        484
 113.7000        501
 113.8000        520
 113.9000        506
 114.0000        576
 114.1000        495
 114.2000        549
 114.3000        496
 114.4000        538
 114.5000        497
 114.6000        537
 114.7000        485
 114.8000        522
 114.9000        483
 115.0000        484
 115.1000        465
 115.2000        447
 115.3000        512
 115.4000        525
 115.5000        477
 115.6000        524
 115.7000        490
 115.8000        491
 115.9000        488
 116.0000        521
 116.1000        466
 116.2000        471
 116.3000        523
 116.4000        491
 116.5000        481
 116.6000        514
 116.7000        506
 116.8000        494
 116.9000        524
 117.0000        520
 117.1000        479
 117.2000        491
 117.3000        522
 117.4000        494
 117.5000        494
 117.6000        532
 117.7000        530
 117.8000        488
 117.9000        513
 118.0000        505
 118.1000        524
 118.2000        510
 118.3000        532
 118.4000        496
 118.5000        588
 118.6000        522
 118.7000        517
 118.8000        467
 118.9000        507
 119.0000        478
 119.1000        543
 119.2000        557
 119.3000        533
 119.4000        521
 119.5000        507
 119.6000        497
 119.7000        478
 119.8000        470
 119.9000        526
 120.0000        544
 120.1000        502
 120.2000        523
 120.3000        496
 120.4000        507
 120.5000        496
 120.6000        563
 120.7000        539
 120.8000        486
 120.9000        540
 121.0000        525
 121.1000        513
 121.2000        474
 121.3000        489
 121.4000        488
 121.5000        499
 121.6000        526
 121.7000        528
 121.8000        532
 121.9000        502
 122.0000        501
 122.1000        501
 122.2000        502
 122.3000        493
 122.4000        519
 122.5000        541
 122.6000        536
 122.7000        500
 122.8000        531
 122.9000        567
 123.0000        572
 123.1000        529
 123.2000        524
 123.3000        615
 123.4000        609
 123.5000        650
 123.6000        596
 123.7000        579
 123.8000        559
 123.9000        545
 124.0000        559
 124.1000        537
 124.2000        513
 124.3000        526
 124.4000        523
 124.5000        543
 124.6000        496
 124.7000        536
 124.8000        510
 124.9000        478
 125.0000        536
 125.1000        529
 125.2000        493
 125.3000        515
 125.4000        542
 125.5000        521
 125.6000        525
 125.7000        530
 125.8000        556
 125.9000        503
 126.0000        509
 126.1000        503
 126.2000        527
 126.3000        533
 126.4000        534
 126.5000        515
 126.6000        517
 126.7000        511
 126.8000        506
 126.9000        562
 127.0000        539
 127.1000        547
 127.2000        530
 127.3000        513
 127.4000        502
 127.5000        483
 127.6000        531
 127.7000        492
 127.8000        529
 127.9000        531
 128.0000        478
 128.1000        518
 128.2000        526
 128.3000        528
 128.4000        543
 128.5000        513
 128.6000        501
 128.7000        507
 128.8000        483
 128.9000        514
 129.0000        526
 129.1000        483
 129.2000        483
 129.3000        499
 129.4000        522
 129.5000        514
 129.6000        518
 129.7000        500
 129.8000        508
 129.9000        531
 130.0000        463

; Data for range 2
_DRIVE = COUPLED
_STEPTIME = 0.2
_STEPSIZE = 0.1
_STEPMODE = C
_START = 40
_THETA = 20
_2THETA = 40
_KHI = 10.5
_PHI = 60
_X = 25
_Y = -25
_Z = 0
_DETECTOR = 1
; Detector type : Scintillation counter
_HV = 687
_GAIN = 80
_LLD = 0.69
_ULD = 1.866
_DETECTORSLIT = unkn
_AUX1 = 0
_AUX2 = 0
_AUX3 = 0
_TIMESTARTED = 209
_TEMP_RATE = -1
_TEMP_DELAY = -1
_KV = 35
_MA = 40
_RANGE_WL = 1.78897
_3DPLANE = 0
_V4_ADDITIONALDETECTOR = 0
_V4_D8_DIBNUM = 1
_V4_DETECTORNAME = "Detector 1"
_V4_TTLDETECTOR = None
_V4_DETECTORTYPE = 1
_V4_DETECTORFLAGS = 524545
_V4_DETECTORHV = 687
_V4_DETECTORGAIN = 80
_V4_DETECTORLLD1 = 0.69
_V4_DETECTORWW1 = 1.176
_V4_DETECTORLLD2 = 0
_V4_DETECTORWW2 = 0
_V4_DETECTORPS = 0
_V4_DETECTORDT = 0
_V4_DETECTORPILEUPTIME = 0
_V4_COUNTERS_MASK = 1
_V4_DRIVES_MASK = 0
_V4_ENCODERS_MASK = 0
_2THETACOUNTS = 1
; 2THETA  Cnt1_D1
  40.0000        558
  40.1000        475
  40.2000        510
  40.3000        553
  40.4000        519
  40.5000        559
  40.6000        527
  40.7000        550
  40.8000        535
  40.9000        501
  41.0000        502
  41.1000        500
  41.2000        542
  41.3000        490
  41.4000        485
  41.5000        510
  41.6000        535
  41.7000        531
  41.8000        497
  41.9000        550
  42.0000        528
  42.1000        490
  42.2000        540
  42.3000        527
  42.4000        550
  42.5000        564
  42.6000        518
  42.7000        506
  42.8000        552
  42.9000        524
  43.0000        521
  43.1000        477
  43.2000        566
  43.3000        532
  43.4000        505
  43.5000        512
  43.6000        500
  43.7000        545
  43.8000        547
  43.9000        508
  44.0000        537
  44.1000        542
  44.2000        487
  44.3000        519
  44.4000        522
  44.5000        485
  44.6000        522
  44.7000        519
  44.8000        495
  44.9000        546
  45.0000        514
  45.1000        511
  45.2000        521
  45.3000        518
  45.4000        554
  45.5000        535
  45.6000        547
  45.7000        509
  45.8000        501
  45.9000        530
  46.0000        523
  46.1000        559
  46.2000        522
  46.3000        521
  46.4000        507
  46.5000        514
  46.6000        543
  46.7000        507
  46.8000        508
  46.9000        538
  47.0000        540
  47.1000        566
  47.2000        518
  47.3000        533
  47.4000        499
  47.5000        526
  47.6000        530
  47.7000        522
  47.8000        513
  47.9000        511
  48.0000        532
  48.1000        553
  48.2000        466
  48.3000        533
  48.4000        540
  48.5000        528
  48.6000        502
  48.7000        528
  48.8000        549
  48.9000        531
  49.0000        548
  49.1000        530
  49.2000        520
  49.3000        484
  49.4000        525
  49.5000        519
  49.6000        550
  49.7000        490
  49.8000        596
  49.9000        517
  50.0000        525
  50.1000        473
  50.2000        515
  50.3000        541
  50.4000        602
  50.5000        635
  50.6000        679
  50.7000        692
  50.8000        719
  50.9000        693
  51.0000        665
  51.1000        659
  51.2000        693
  51.3000        587
  51.4000        653
  51.5000        737
  51.6000        832
  51.7000       1063
  51.8000       1224
  51.9000       1376
  52.0000       1441
  52.1000       1326
  52.2000       1419
  52.3000       1288
  52.4000       1252
  52.5000       1099
  52.6000        848
  52.7000        709
  52.8000        588
  52.9000        548
  53.0000        531
  53.1000        549
  53.2000        523
  53.3000        543
  53.4000        530
  53.5000        495
  53.6000        522
  53.7000        474
  53.8000        517
  53.9000        508
  54.0000        558
  54.1000        533
  54.2000        521
  54.3000        504
  54.4000        526
  54.5000        511
  54.6000        543
  54.7000        523
  54.8000        531
  54.9000        504
  55.0000        496
  55.1000        531
  55.2000        514
  55.3000        554
  55.4000        499
  55.5000        565
  55.6000        484
  55.7000        553
  55.8000        537
  55.9000        513
  56.0000        559
  56.1000        543
  56.2000        471
  56.3000        542
  56.4000        547
  56.5000        520
  56.6000        539
  56.7000        527
  56.8000        546
  56.9000        504
  57.0000        543
  57.1000        478
  57.2000        503
  57.3000        528
  57.4000        532
  57.5000        559
  57.6000        503
  57.7000        527
  57.8000        509
  57.9000        560
  58.0000        506
  58.1000        499
  58.2000        494
  58.3000        512
  58.4000        522
  58.5000        521
  58.6000        489
  58.7000        513
  58.8000        521
  58.9000        566
  59.0000        597
  59.1000        561
  59.2000        564
  59.3000        596
  59.4000        651
  59.5000        613
  59.6000        613
  59.7000        611
  59.8000        582
  59.9000        589
  60.0000        520
  60.1000        528
  60.2000        515
  60.3000        531
  60.4000        487
  60.5000        521
  60.6000        547
  60.7000        513
  60.8000        481
  60.9000        559
  61.0000        496
  61.1000        471
  61.2000        515
  61.3000        495
  61.4000        492
  61.5000        509
  61.6000        504
  61.7000        512
  61.8000        518
  61.9000        507
  62.0000        532
  62.1000        482
  62.2000        507
  62.3000        502
  62.4000        505
  62.5000        517
  62.6000        495
  62.7000        488
  62.8000        555
  62.9000        515
  63.0000        487
  63.1000        542
  63.2000        490
  63.3000        500
  63.4000        519
  63.5000        461
  63.6000        533
  63.7000        497
  63.8000        512
  63.9000        524
  64.0000        530
  64.1000        527
  64.2000        525
  64.3000        493
  64.4000        488
  64.5000        526
  64.6000        527
  64.7000        503
  64.8000        505
  64.9000        459
  65.0000        572
  65.1000        469
  65.2000        544
  65.3000        496
  65.4000        511
  65.5000        544
  65.6000        514
  65.7000        519
  65.8000        549
  65.9000        557
  66.0000        514
  66.1000        501
  66.2000        486
  66.3000        531
  66.4000        458
  66.5000        481
  66.6000        516
  66.7000        480
  66.8000        524
  66.9000        550
  67.0000        515
  67.1000        550
  67.2000        484
  67.3000        541
  67.4000        498
  67.5000        514
  67.6000        458
  67.7000        514
  67.8000        526
  67.9000        529
  68.0000        489
  68.1000        500
  68.2000        548
  68.3000        491
  68.4000        522
  68.5000        540
  68.6000        554
  68.7000        445
  68.8000        466
  68.9000        511
  69.0000        516
  69.1000        494
  69.2000        517
  69.3000        497
  69.4000        490
  69.5000        512
  69.6000        530
  69.7000        488
  69.8000        496
  69.9000        503
  70.0000        513
  70.1000        519
  70.2000        547
  70.3000        537
  70.4000        518
  70.5000        492
  70.6000        519
  70.7000        544
  70.8000        501
  70.9000        522
  71.0000        483
  71.1000        519
  71.2000        457
  71.3000        474
  71.4000        483
  71.5000        491
  71.6000        473
  71.7000        496
  71.8000        555
  71.9000        522
  72.0000        514
  72.1000        470
  72.2000        511
  72.3000        494
  72.4000        511
  72.5000        543
  72.6000        476
  72.7000        464
  72.8000        487
  72.9000        539
  73.0000        554
  73.1000        516
  73.2000        537
  73.3000        509
  73.4000        508
  73.5000        488
  73.6000        528
  73.7000        549
  73.8000        528
  73.9000        522
  74.0000        551
  74.1000        510
  74.2000        515
  74.3000        499
  74.4000        551
  74.5000        478
  74.6000        494
  74.7000        507
  74.8000        509
  74.9000        466
  75.0000        513
  75.1000        533
  75.2000        467
  75.3000        582
  75.4000        488
  75.5000        484
  75.6000        535
  75.7000        505
  75.8000        467
  75.9000        512
  76.0000        532
  76.1000        493
  76.2000        517
  76.3000        564
  76.4000        582
  76.5000        554
  76.6000        610
  76.7000        673
  76.8000        627
  76.9000        665
  77.0000        632
  77.1000        692
  77.2000        625
  77.3000        595
  77.4000        526
  77.5000        520
  77.6000        509
  77.7000        509
  77.8000        522
  77.9000        527
  78.0000        510
  78.1000        504
  78.2000        500
  78.3000        523
  78.4000        529
  78.5000        510
  78.6000        517
  78.7000        546
  78.8000        505
  78.9000        516
  79.0000        478
  79.1000        514
  79.2000        518
  79.3000        556
  79.4000        508
  79.5000        529
  79.6000        543
  79.7000        470
  79.8000        507
  79.9000        520
  80.0000        444
  80.1000        518
  80.2000        488
  80.3000        482
  80.4000        514
  80.5000        494
  80.6000        501
  80.7000        515
  80.8000        467
  80.9000        468
  81.0000        461
  81.1000        524
  81.2000        547
  81.3000        477
  81.4000        512
  81.5000        523
  81.6000        491
  81.7000        498
  81.8000        498
  81.9000        532
  82.0000        491
  82.1000        504
  82.2000        503
  82.3000        500
  82.4000        519
  82.5000        529
  82.6000        523
  82.7000        506
  82.8000        476
  82.9000        500
  83.0000        554
  83.1000        551
  83.2000        509
  83.3000        527
  83.4000        505
  83.5000        506
  83.6000        462
  83.7000        500
  83.8000        552
  83.9000        490
  84.0000        511
  84.1000        490
  84.2000        498
  84.3000        516
  84.4000        500
  84.5000        453
  84.6000        490
  84.7000        459
  84.8000        503
  84.9000        492
  85.0000        501
  85.1000        531
  85.2000        483
  85.3000        504
  85.4000        473
  85.5000        483
  85.6000        492
  85.7000        535
  85.8000        547
  85.9000        457
  86.0000        473
  86.1000        512
  86.2000        503
  86.3000        493
  86.4000        507
  86.5000        511
  86.6000        494
  86.7000        523
  86.8000        533
  86.9000        483
  87.0000        512
  87.1000        474
  87.2000        544
  87.3000        540
  87.4000        494
  87.5000        510
  87.6000        532
  87.7000        516
  87.8000        485
  87.9000        497
  88.0000        555
  88.1000        557
  88.2000        524
  88.3000        491
  88.4000        476
  88.5000        535
  88.6000        544
  88.7000        517
  88.8000        553
  88.9000        584
  89.0000        591
  89.1000        615
  89.2000        604
  89.3000        611
  89.4000        631
  89.5000        627
  89.6000        555
  89.7000        570
  89.8000        565
  89.9000        553
  90.0000        514
  90.1000        484
  90.2000        487
  90.3000        556
  90.4000        465
  90.5000        525
  90.6000        488
  90.7000        522
  90.8000        511
  90.9000        498
  91.0000        502
  91.1000        507
  91.2000        517
  91.3000        509
  91.4000        511
  91.5000        502
  91.6000        534
  91.7000        523
  91.8000        538
  91.9000        503
  92.0000        466
  92.1000        537
  92.2000        528
  92.3000        487
  92.4000        517
  92.5000        488
  92.6000        524
  92.7000        506
  92.8000        513
  92.9000        480
  93.0000        507
  93.1000        490
  93.2000        501
  93.3000        480
  93.4000        487
  93.5000        484
  93.6000        516
  93.7000        496
  93.8000        486
  93.9000        521
  94.0000        485
  94.1000        500
  94.2000        488
  94.3000        524
  94.4000        523
  94.5000        497
  94.6000        492
  94.7000        494
  94.8000        501
  94.9000        521
  95.0000        527
  95.1000        524
  95.2000        538
  95.3000        477
  95.4000        497
  95.5000        504
  95.6000        510
  95.7000        475
  95.8000        510
  95.9000        494
  96.0000        548
  96.1000        516
  96.2000        488
  96.3000        519
  96.4000        469
  96.5000        546
  96.6000        498
  96.7000        507
  96.8000        513
  96.9000        530
  97.0000        507
  97.1000        491
  97.2000        491
  97.3000        495
  97.4000        471
  97.5000        508
  97.6000        538
  97.7000        511
  97.8000        498
  97.9000        524
  98.0000        516
  98.1000        509
  98.2000        510
  98.3000        528
  98.4000        527
  98.5000        553
  98.6000        604
  98.7000        665
  98.8000        824
  98.9000        863
  99.0000        932
  99.1000        991
  99.2000       1122
  99.3000       1045
  99.4000       1141
  99.5000       1073
  99.6000       1079
  99.7000        897
  99.8000        825
  99.9000        721
 100.0000        634
 100.1000        576
 100.2000        543
 100.3000        547
 100.4000        523
 100.5000        519
 100.6000        521
 100.7000        522
 100.8000        523
 100.9000        470
 101.0000        510
 101.1000        512
 101.2000        484
 101.3000        501
 101.4000        481
 101.5000        481
 101.6000        522
 101.7000        529
 101.8000        507
 101.9000        498
 102.0000        504
 102.1000        513
 102.2000        504
 102.3000        499
 102.4000        530
 102.5000        505
 102.6000        447
 102.7000        494
 102.8000        485
 102.9000        534
 103.0000        496
 103.1000        528
 103.2000        529
 103.3000        496
 103.4000        518
 103.5000        492
 103.6000        523
 103.7000        524
 103.8000        493
 103.9000        499
 104.0000        495
 104.1000        508
 104.2000        512
 104.3000        485
 104.4000        555
 104.5000        515
 104.6000        497
 104.7000        581
 104.8000        564
 104.9000        526
 105.0000        489
 105.1000        498
 105.2000        497
 105.3000        515
 105.4000        521
 105.5000        528
 105.6000        519
 105.7000        481
 105.8000        511
 105.9000        499
 106.0000        478
 106.1000        541
 106.2000        521
 106.3000        537
 106.4000        544
 106.5000        519
 106.6000        507
 106.7000        511
 106.8000        530
 106.9000        519
 107.0000        533
 107.1000        523
 107.2000        524
 107.3000        534
 107.4000        529
 107.5000        535
 107.6000        521
 107.7000        507
 107.8000        526
 107.9000        488
 108.0000        478
 108.1000        475
 108.2000        508
 108.3000        507
 108.4000        468
 108.5000        487
 108.6000        556
 108.7000        501
 108.8000        483
 108.9000        526
 109.0000        515
 109.1000        540
 109.2000        551
 109.3000        519
 109.4000        501
 109.5000        507
 109.6000        485
 109.7000        521
 109.8000        482
 109.9000        512
 110.0000        474
 110.1000        465
 110.2000        549
 110.3000        554
 110.4000        536
 110.5000        560
 110.6000        549
 110.7000        569
 110.8000        512
 110.9000        571
 111.0000        591
 111.1000        642
 111.2000        571
 111.3000        623
 111.4000        600
 111.5000        535
 111.6000        580
 111.7000        549
 111.8000        539
 111.9000        540
 112.0000        535
 112.1000        527
 112.2000        524
 112.3000        524
 112.4000        519
 112.5000        532
 112.6000        490
 112.7000        522
 112.8000        497
 112.9000        520
 113.0000        478
 113.1000        479
 113.2000        541
 113.3000        511
 113.4000        544
 113.5000        544
 113.6000        486
 113.7000        476
 113.8000        507
 113.9000        510
 114.0000        565
 114.1000        502
 114.2000        520
 114.3000        504
 114.4000        556
 114.5000        520
 114.6000        513
 114.7000        509
 114.8000        474
 114.9000        481
 115.0000        492
 115.1000        506
 115.2000        508
 115.3000        488
 115.4000        530
 115.5000        513
 115.6000        507
 115.7000        446
 115.8000        514
 115.9000        509
 116.0000        519
 116.1000        493
 116.2000        491
 116.3000        483
 116.4000        538
 116.5000        449
 116.6000        486
 116.7000        444
 116.8000        516
 116.9000        532
 117.0000        498
 117.1000        506
 117.2000        542
 117.3000        516
 117.4000        527
 117.5000        482
 117.6000        512
 117.7000        493
 117.8000        503
 117.9000        494
 118.0000        511
 118.1000        504
 118.2000        499
 118.3000        508
 118.4000        514
 118.5000        510
 118.6000        545
 118.7000        517
 118.8000        532
 118.9000        554
 119.0000        511
 119.1000        508
 119.2000        507
 119.3000        510
 119.4000        509
 119.5000        523
 119.6000        516
 119.7000        531
 119.8000        517
 119.9000        510
 120.0000        507
 120.1000        495
 120.2000        509
 120.3000        551
 120.4000        505
 120.5000        494
 120.6000        509
 120.7000        507
 120.8000        533
 120.9000        446
 121.0000        491
 121.1000        542
 121.2000        492
 121.3000        512
 121.4000        447
 121.5000        507
 121.6000        507
 121.7000        504
 121.8000        483
 121.9000        532
 122.0000        508
 122.1000        542
 122.2000        506
 122.3000        553
 122.4000        554
 122.5000        528
 122.6000        561
 122.7000        548
 122.8000        581
 122.9000        557
 123.0000        578
 123.1000        608
 123.2000        589
 123.3000        603
 123.4000        584
 123.5000        561
 123.6000        610
 123.7000        600
 123.8000        545
 123.9000        567
 124.0000        580
 124.1000        563
 124.2000        510
 124.3000        529
 124.4000        512
 124.5000        525
 124.6000        494
 124.7000        515
 124.8000        524
 124.9000        537
 125.0000        526
 125.1000        496
 125.2000        483
 125.3000        453
 125.4000        481
 125.5000        461
 125.6000        487
 125.7000        533
 125.8000        528
 125.9000        524
 126.0000        552
 126.1000        522
 126.2000        546
 126.3000        559
 126.4000        519
 126.5000        519
 126.6000        499
 126.7000        501
 126.8000        502
 126.9000        509
 127.0000        513
 127.1000        534
 127.2000        504
 127.3000        474
 127.4000        521
 127.5000        460
[...]
 129.2000        404
 129.3000        377
 129.4000        361
 129.5000        367
 129.6000        388
 129.7000        363
 129.8000        361
 129.9000        397
 130.0000        354

; Data for range 53
_DRIVE = COUPLED
_STEPTIME = 0.2
_STEPSIZE = 0.1
_STEPMODE = C
_START = 40
_THETA = 20
_2THETA = 40
_KHI = 80
_PHI = 0
_X = 25
_Y = -25
_Z = 0
_DETECTOR = 1
; Detector type : Scintillation counter
_HV = 687
_GAIN = 80
_LLD = 0.69
_ULD = 1.866
_DETECTORSLIT = unkn
_AUX1 = 0
_AUX2 = 0
_AUX3 = 0
_TIMESTARTED = 1.028e+004
_TEMP_RATE = -1
_TEMP_DELAY = -1
_KV = 35
_MA = 40
_RANGE_WL = 1.78897
_3DPLANE = 0
_V4_ADDITIONALDETECTOR = 0
_V4_D8_DIBNUM = 1
_V4_DETECTORNAME = "Detector 1"
_V4_TTLDETECTOR = None
_V4_DETECTORTYPE = 1
_V4_DETECTORFLAGS = 524545
_V4_DETECTORHV = 687
_V4_DETECTORGAIN = 80
_V4_DETECTORLLD1 = 0.69
_V4_DETECTORWW1 = 1.176
_V4_DETECTORLLD2 = 0
_V4_DETECTORWW2 = 0
_V4_DETECTORPS = 0
_V4_DETECTORDT = 0
_V4_DETECTORPILEUPTIME = 0
_V4_COUNTERS_MASK = 1
_V4_DRIVES_MASK = 0
_V4_ENCODERS_MASK = 0
_2THETACOUNTS = 1
; 2THETA  Cnt1_D1
  40.0000        151
  40.1000        132
  40.2000        154
  40.3000        155
  40.4000        147
  40.5000        152
  40.6000        159
  40.7000        182
  40.8000        147
  40.9000        153
  41.0000        147
  41.1000        159
  41.2000        156
  41.3000        147
  41.4000        163
  41.5000        141
  41.6000        147
  41.7000        168
  41.8000        165
  41.9000        162
  42.0000        155
  42.1000        161
  42.2000        158
  42.3000        153
  42.4000        167
  42.5000        151
  42.6000        147
  42.7000        170
  42.8000        176
  42.9000        180
  43.0000        195
  43.1000        201
  43.2000        219
  43.3000        208
  43.4000        252
  43.5000        223
  43.6000        221
  43.7000        246
  43.8000        206
  43.9000        204
  44.0000        197
  44.1000        221
  44.2000        177
  44.3000        179
  44.4000        161
  44.5000        152
  44.6000        144
  44.7000        172
  44.8000        169
  44.9000        176
  45.0000        133
  45.1000        185
  45.2000        151
  45.3000        175
  45.4000        164
  45.5000        171
  45.6000        171
  45.7000        159
  45.8000        144
  45.9000        178
  46.0000        157
  46.1000        150
  46.2000        159
  46.3000        151
  46.4000        178
  46.5000        172
  46.6000        173
  46.7000        175
  46.8000        163
  46.9000        177
  47.0000        171
  47.1000        171
  47.2000        166
  47.3000        173
  47.4000        149
  47.5000        182
  47.6000        165
  47.7000        163
  47.8000        162
  47.9000        144
  48.0000        163
  48.1000        177
  48.2000        176
  48.3000        161
  48.4000        181
  48.5000        143
  48.6000        165
  48.7000        166
  48.8000        170
  48.9000        196
  49.0000        177
  49.1000        180
  49.2000        175
  49.3000        164
  49.4000        196
  49.5000        191
  49.6000        186
  49.7000        175
  49.8000        202
  49.9000        218
  50.0000        182
  50.1000        211
  50.2000        225
  50.3000        252
  50.4000        269
  50.5000        287
  50.6000        282
  50.7000        318
  50.8000        363
  50.9000        349
  51.0000        342
  51.1000        331
  51.2000        371
  51.3000        342
  51.4000        412
  51.5000        443
  51.6000        522
  51.7000        555
  51.8000        568
  51.9000        590
  52.0000        689
  52.1000        692
  52.2000        770
  52.3000        759
  52.4000        803
  52.5000        712
  52.6000        649
  52.7000        610
  52.8000        486
  52.9000        421
  53.0000        351
  53.1000        313
  53.2000        267
  53.3000        216
  53.4000        224
  53.5000        213
  53.6000        193
  53.7000        193
  53.8000        188
  53.9000        200
  54.0000        177
  54.1000        191
  54.2000        182
  54.3000        175
  54.4000        181
  54.5000        198
  54.6000        183
  54.7000        178
  54.8000        190
  54.9000        192
  55.0000        178
  55.1000        188
  55.2000        155
  55.3000        191
  55.4000        223
  55.5000        165
  55.6000        191
  55.7000        196
  55.8000        201
  55.9000        193
  56.0000        190
  56.1000        181
  56.2000        199
  56.3000        181
  56.4000        166
  56.5000        176
  56.6000        194
  56.7000        218
  56.8000        194
  56.9000        219
  57.0000        203
  57.1000        197
  57.2000        208
  57.3000        208
  57.4000        185
  57.5000        198
  57.6000        200
  57.7000        210
  57.8000        225
  57.9000        197
  58.0000        196
  58.1000        210
  58.2000        198
  58.3000        194
  58.4000        185
  58.5000        211
  58.6000        210
  58.7000        196
  58.8000        216
  58.9000        209
  59.0000        250
  59.1000        222
  59.2000        211
  59.3000        219
  59.4000        217
  59.5000        249
  59.6000        253
  59.7000        242
  59.8000        219
  59.9000        208
  60.0000        235
  60.1000        230
  60.2000        194
  60.3000        210
  60.4000        223
  60.5000        194
  60.6000        220
  60.7000        214
  60.8000        214
  60.9000        213
  61.0000        201
  61.1000        198
  61.2000        185
  61.3000        185
  61.4000        206
  61.5000        192
  61.6000        176
  61.7000        216
  61.8000        229
  61.9000        205
  62.0000        189
  62.1000        193
  62.2000        196
  62.3000        204
  62.4000        197
  62.5000        196
  62.6000        188
  62.7000        214
  62.8000        178
  62.9000        221
  63.0000        215
  63.1000        228
  63.2000        218
  63.3000        219
  63.4000        196
  63.5000        215
  63.6000        227
  63.7000        235
  63.8000        207
  63.9000        249
  64.0000        189
  64.1000        230
  64.2000        226
  64.3000        217
  64.4000        241
  64.5000        191
  64.6000        192
  64.7000        225
  64.8000        184
  64.9000        205
  65.0000        222
  65.1000        215
  65.2000        215
  65.3000        211
  65.4000        211
  65.5000        206
  65.6000        223
  65.7000        231
  65.8000        211
  65.9000        221
  66.0000        228
  66.1000        199
  66.2000        213
  66.3000        238
  66.4000        237
  66.5000        219
  66.6000        230
  66.7000        247
  66.8000        229
  66.9000        227
  67.0000        240
  67.1000        211
  67.2000        260
  67.3000        206
  67.4000        253
  67.5000        232
  67.6000        217
  67.7000        212
  67.8000        223
  67.9000        229
  68.0000        246
  68.1000        227
  68.2000        225
  68.3000        217
  68.4000        237
  68.5000        231
  68.6000        209
  68.7000        233
  68.8000        265
  68.9000        247
  69.0000        215
  69.1000        233
  69.2000        216
  69.3000        259
  69.4000        235
  69.5000        215
  69.6000        230
  69.7000        216
  69.8000        228
  69.9000        228
  70.0000        219
  70.1000        251
  70.2000        238
  70.3000        213
  70.4000        217
  70.5000        238
  70.6000        221
  70.7000        267
  70.8000        252
  70.9000        228
  71.0000        240
  71.1000        216
  71.2000        237
  71.3000        229
  71.4000        271
  71.5000        215
  71.6000        246
  71.7000        229
  71.8000        239
  71.9000        242
  72.0000        232
  72.1000        262
  72.2000        225
  72.3000        232
  72.4000        241
  72.5000        248
  72.6000        224
  72.7000        233
  72.8000        230
  72.9000        246
  73.0000        237
  73.1000        248
  73.2000        278
  73.3000        230
  73.4000        234
  73.5000        244
  73.6000        249
  73.7000        269
  73.8000        232
  73.9000        243
  74.0000        240
  74.1000        266
  74.2000        249
  74.3000        224
  74.4000        282
  74.5000        278
  74.6000        246
  74.7000        254
  74.8000        262
  74.9000        291
  75.0000        232
  75.1000        235
  75.2000        255
  75.3000        251
  75.4000        266
  75.5000        262
  75.6000        238
  75.7000        253
  75.8000        255
  75.9000        255
  76.0000        271
  76.1000        268
  76.2000        299
  76.3000        301
  76.4000        280
  76.5000        269
  76.6000        309
  76.7000        283
  76.8000        273
  76.9000        259
  77.0000        299
  77.1000        299
  77.2000        273
  77.3000        255
  77.4000        291
  77.5000        284
  77.6000        301
  77.7000        279
  77.8000        266
  77.9000        262
  78.0000        299
  78.1000        274
  78.2000        268
  78.3000        250
  78.4000        255
  78.5000        268
  78.6000        250
  78.7000        284
  78.8000        242
  78.9000        264
  79.0000        247
  79.1000        275
  79.2000        290
  79.3000        256
  79.4000        255
  79.5000        272
  79.6000        286
  79.7000        269
  79.8000        266
  79.9000        256
  80.0000        283
  80.1000        280
  80.2000        297
  80.3000        292
  80.4000        246
  80.5000        246
  80.6000        294
  80.7000        279
  80.8000        266
  80.9000        250
  81.0000        281
  81.1000        282
  81.2000        271
  81.3000        286
  81.4000        255
  81.5000        289
  81.6000        265
  81.7000        293
  81.8000        267
  81.9000        292
  82.0000        270
  82.1000        273
  82.2000        289
  82.3000        267
  82.4000        257
  82.5000        278
  82.6000        245
  82.7000        270
  82.8000        272
  82.9000        275
  83.0000        261
  83.1000        295
  83.2000        272
  83.3000        293
  83.4000        267
  83.5000        277
  83.6000        290
  83.7000        282
  83.8000        261
  83.9000        311
  84.0000        307
  84.1000        271
  84.2000        288
  84.3000        277
  84.4000        298
  84.5000        284
  84.6000        286
  84.7000        271
  84.8000        274
  84.9000        281
  85.0000        285
  85.1000        268
  85.2000        269
  85.3000        280
  85.4000        259
  85.5000        261
  85.6000        265
  85.7000        304
  85.8000        309
  85.9000        294
  86.0000        287
  86.1000        316
  86.2000        297
  86.3000        298
  86.4000        292
  86.5000        288
  86.6000        301
  86.7000        308
  86.8000        288
  86.9000        297
  87.0000        286
  87.1000        273
  87.2000        284
  87.3000        258
  87.4000        285
  87.5000        317
  87.6000        296
  87.7000        307
  87.8000        278
  87.9000        299
  88.0000        265
  88.1000        311
  88.2000        277
  88.3000        309
  88.4000        305
  88.5000        355
  88.6000        292
  88.7000        316
  88.8000        306
  88.9000        321
  89.0000        346
  89.1000        313
  89.2000        343
  89.3000        328
  89.4000        311
  89.5000        357
  89.6000        321
  89.7000        324
  89.8000        330
  89.9000        307
  90.0000        302
  90.1000        324
  90.2000        301
  90.3000        288
  90.4000        310
  90.5000        317
  90.6000        311
  90.7000        290
  90.8000        298
  90.9000        322
  91.0000        332
  91.1000        313
  91.2000        323
  91.3000        314
  91.4000        309
  91.5000        304
  91.6000        307
  91.7000        295
  91.8000        327
  91.9000        304
  92.0000        324
  92.1000        311
  92.2000        300
  92.3000        344
  92.4000        331
  92.5000        289
  92.6000        311
  92.7000        325
  92.8000        287
  92.9000        310
  93.0000        350
  93.1000        319
  93.2000        321
  93.3000        297
  93.4000        325
  93.5000        282
  93.6000        324
  93.7000        314
  93.8000        346
  93.9000        303
  94.0000        321
  94.1000        294
  94.2000        310
  94.3000        304
  94.4000        327
  94.5000        328
  94.6000        326
  94.7000        302
  94.8000        304
  94.9000        307
  95.0000        342
  95.1000        299
  95.2000        336
  95.3000        314
  95.4000        303
  95.5000        364
  95.6000        326
  95.7000        345
  95.8000        343
  95.9000        350
  96.0000        302
  96.1000        321
  96.2000        324
  96.3000        310
  96.4000        313
  96.5000        355
  96.6000        315
  96.7000        322
  96.8000        325
  96.9000        335
  97.0000        317
  97.1000        338
  97.2000        317
  97.3000        347
  97.4000        306
  97.5000        351
  97.6000        351
  97.7000        359
  97.8000        347
  97.9000        341
  98.0000        309
  98.1000        350
  98.2000        386
  98.3000        415
  98.4000        412
  98.5000        463
  98.6000        466
  98.7000        470
  98.8000        475
  98.9000        485
  99.0000        475
  99.1000        482
  99.2000        506
  99.3000        531
  99.4000        493
  99.5000        487
  99.6000        547
  99.7000        504
  99.8000        491
  99.9000        489
 100.0000        446
 100.1000        447
 100.2000        433
 100.3000        420
 100.4000        390
 100.5000        397
 100.6000        342
 100.7000        406
 100.8000        367
 100.9000        329
 101.0000        379
 101.1000        359
 101.2000        340
 101.3000        355
 101.4000        314
 101.5000        336
 101.6000        332
 101.7000        360
 101.8000        351
 101.9000        299
 102.0000        333
 102.1000        357
 102.2000        359
 102.3000        336
 102.4000        373
 102.5000        356
 102.6000        358
 102.7000        331
 102.8000        345
 102.9000        319
 103.0000        359
 103.1000        351
 103.2000        331
 103.3000        346
 103.4000        345
 103.5000        321
 103.6000        340
 103.7000        359
 103.8000        349
 103.9000        364
 104.0000        340
 104.1000        370
 104.2000        338
 104.3000        356
 104.4000        345
 104.5000        333
 104.6000        340
 104.7000        352
 104.8000        381
 104.9000        340
 105.0000        383
 105.1000        344
 105.2000        337
 105.3000        361
 105.4000        348
 105.5000        333
 105.6000        331
 105.7000        332
 105.8000        383
 105.9000        327
 106.0000        366
 106.1000        325
 106.2000        368
 106.3000        374
 106.4000        352
 106.5000        361
 106.6000        347
 106.7000        358
 106.8000        380
 106.9000        365
 107.0000        364
 107.1000        346
 107.2000        365
 107.3000        361
 107.4000        375
 107.5000        374
 107.6000        342
 107.7000        338
 107.8000        361
 107.9000        331
 108.0000        357
 108.1000        355
 108.2000        362
 108.3000        386
 108.4000        315
 108.5000        390
 108.6000        364
 108.7000        375
 108.8000        344
 108.9000        356
 109.0000        389
 109.1000        368
 109.2000        395
 109.3000        351
 109.4000        354
 109.5000        338
 109.6000        388
 109.7000        360
 109.8000        401
 109.9000        413
 110.0000        399
 110.1000        385
 110.2000        394
 110.3000        400
 110.4000        384
 110.5000        415
 110.6000        416
 110.7000        398
 110.8000        365
 110.9000        396
 111.0000        420
 111.1000        405
 111.2000        366
 111.3000        424
 111.4000        347
 111.5000        385
 111.6000        372
 111.7000        376
 111.8000        361
 111.9000        387
 112.0000        369
 112.1000        391
 112.2000        402
 112.3000        356
 112.4000        357
 112.5000        374
 112.6000        365
 112.7000        341
 112.8000        381
 112.9000        395
 113.0000        350
 113.1000        359
 113.2000        373
 113.3000        352
 113.4000        359
 113.5000        343
 113.6000        377
 113.7000        364
 113.8000        380
 113.9000        421
 114.0000        372
 114.1000        363
 114.2000        360
 114.3000        398
 114.4000        386
 114.5000        358
 114.6000        398
 114.7000        383
 114.8000        406
 114.9000        376
 115.0000        368
 115.1000        377
 115.2000        331
 115.3000        402
 115.4000        345
 115.5000        349
 115.6000        379
 115.7000        395
 115.8000        399
 115.9000        380
 116.0000        372
 116.1000        396
 116.2000        378
 116.3000        378
 116.4000        372
 116.5000        349
 116.6000        374
 116.7000        399
 116.8000        369
 116.9000        375
 117.0000        379
 117.1000        381
 117.2000        370
 117.3000        420
 117.4000        374
 117.5000        421
 117.6000        372
 117.7000        388
 117.8000        401
 117.9000        407
 118.0000        362
 118.1000        406
 118.2000        371
 118.3000        410
 118.4000        390
 118.5000        414
 118.6000        442
 118.7000        413
 118.8000        449
 118.9000        450
 119.0000        425
 119.1000        426
 119.2000        421
 119.3000        443
 119.4000        399
 119.5000        386
 119.6000        411
 119.7000        371
 119.8000        359
 119.9000        379
 120.0000        376
 120.1000        394
 120.2000        378
 120.3000        379
 120.4000        408
 120.5000        379
 120.6000        401
 120.7000        364
 120.8000        409
 120.9000        425
 121.0000        388
 121.1000        396
 121.2000        408
 121.3000        391
 121.4000        365
 121.5000        399
 121.6000        389
 121.7000        411
 121.8000        410
 121.9000        423
 122.0000        399
 122.1000        401
 122.2000        377
 122.3000        403
 122.4000        415
 122.5000        442
 122.6000        468
 122.7000        450
 122.8000        482
 122.9000        503
 123.0000        523
 123.1000        544
 123.2000        563
 123.3000        538
 123.4000        514
 123.5000        585
 123.6000        592
 123.7000        542
 123.8000        541
 123.9000        513
 124.0000        538
 124.1000        491
 124.2000        472
 124.3000        493
 124.4000        436
 124.5000        432
 124.6000        438
 124.7000        422
 124.8000        366
 124.9000        416
 125.0000        388
 125.1000        385
 125.2000        396
 125.3000        403
 125.4000        400
 125.5000        421
 125.6000        394
 125.7000        415
 125.8000        414
 125.9000        406
 126.0000        400
 126.1000        414
 126.2000        397
 126.3000        368
 126.4000        416
 126.5000        399
 126.6000        373
 126.7000        355
 126.8000        398
 126.9000        360
 127.0000        360
 127.1000        387
 127.2000        404
 127.3000        399
 127.4000        399
 127.5000        416
 127.6000        337
 127.7000        372
 127.8000        399
 127.9000        391
 128.0000        341
 128.1000        396
 128.2000        392
 128.3000        385
 128.4000        385
 128.5000        389
 128.6000        406
 128.7000        384
 128.8000        371
 128.9000        417
 129.0000        382
 129.1000        368
 129.2000        366
 129.3000        381
 129.4000        391
 129.5000        400
 129.6000        347
 129.7000        390
 129.8000        410
 129.9000        423
 130.0000        351