File: exp_dat/old/exp_2013_11_11/09pct_40G.uxd
; (content of file C:\DIFFDAT1\GIFT\MDL\Seawoong Lee\20131104_MV8\equal_area_maxkhi080_n8_2th40_130_x00y00_40g.raw)
_FILEVERSION = 3
_SAMPLE =
_+SAMPLE =
_SITE = Korea
_USER = Admin
_GONIOMETER_CODE = 20
; Goniometer : D8 theta/2theta, stage : Unknown
_SAMPLE_CHANGER_CODE = 0
_ATTACHMENTS_CODE = 0
_GONIOMETER_RADIUS = 300
_FIXED_DIVSLIT = 1
_FIXED_SAMPLESLIT = 0
_SOLLER_SLITS = 2
_FIXED_DETSLIT = 0.1
_MONOCHROMATOR = 0
; Incident beam monochromator : None
_SOLLER_SLITS_2 = 2
_THIN_FILM = N
_BETA_FILTER = Y
_FIXED_ANTISLIT = 0.6
_ANALYZER_CODE = 0
; Received beam analyzer : None
_DATEMEASURED = "09-Nov-2013 00:32:21"
_WL_UNIT = A
_WL1 = 1.78897
_WL2 = 1.79285
_WL3 = 1.62079
_WLRATIO = 0.5
_ANODE = Co
_V4_INF_CREATOR = XRDWizard
_V4_INF_CREATOR_VERSION = V2.9.0.22
_V4_INF_WIZARD_VERSION = V2.9.0.22
_V4_INF_WIZARD_ADDINS = V2.9.0.22
_V4_INF_WIZARD_DOCTYPE = XRD
_V4_INF_OSUSER = Postech
_V4_INF_USER = Admin
_V4_INF_SITE = Korea

; Data for range 1
_DRIVE = COUPLED
_STEPTIME = 0.2
_STEPSIZE = 0.1
_STEPMODE = C
_START = 40
_THETA = 20
_2THETA = 40
_KHI = 0
_PHI = 0
_X = 0
_Y = 0
_Z = 0
_DETECTOR = 1
; Detector type : Scintillation counter
_HV = 687
_GAIN = 80
_LLD = 0.69
_ULD = 1.866
_DETECTORSLIT = unkn
_AUX1 = 0
_AUX2 = 0
_AUX3 = 0
_TIMESTARTED = 27
_TEMP_RATE = -1
_TEMP_DELAY = -1
_KV = 35
_MA = 40
_RANGE_WL = 1.78897
_3DPLANE = 0
_V4_ADDITIONALDETECTOR = 0
_V4_D8_DIBNUM = 1
_V4_DETECTORNAME = "Detector 1"
_V4_TTLDETECTOR = None
_V4_DETECTORTYPE = 1
_V4_DETECTORFLAGS = 524545
_V4_DETECTORHV = 687
_V4_DETECTORGAIN = 80
_V4_DETECTORLLD1 = 0.69
_V4_DETECTORWW1 = 1.176
_V4_DETECTORLLD2 = 0
_V4_DETECTORWW2 = 0
_V4_DETECTORPS = 0
_V4_DETECTORDT = 0
_V4_DETECTORPILEUPTIME = 0
_V4_COUNTERS_MASK = 1
_V4_DRIVES_MASK = 0
_V4_ENCODERS_MASK = 0
_2THETACOUNTS = 1
; 2THETA  Cnt1_D1
  40.0000        529
  40.1000        483
  40.2000        528
  40.3000        508
  40.4000        526
  40.5000        524
  40.6000        552
  40.7000        542
  40.8000        549
  40.9000        502
  41.0000        530
  41.1000        527
  41.2000        532
  41.3000        521
  41.4000        526
  41.5000        549
  41.6000        530
  41.7000        554
  41.8000        558
  41.9000        510
  42.0000        543
  42.1000        528
  42.2000        521
  42.3000        552
  42.4000        501
  42.5000        542
  42.6000        556
  42.7000        538
  42.8000        559
  42.9000        498
  43.0000        553
  43.1000        499
  43.2000        520
  43.3000        501
  43.4000        542
  43.5000        548
  43.6000        563
  43.7000        524
  43.8000        524
  43.9000        502
  44.0000        520
  44.1000        519
  44.2000        521
  44.3000        522
  44.4000        466
  44.5000        514
  44.6000        550
  44.7000        540
  44.8000        526
  44.9000        511
  45.0000        521
  45.1000        482
  45.2000        516
  45.3000        505
  45.4000        534
  45.5000        523
  45.6000        526
  45.7000        496
  45.8000        512
  45.9000        530
  46.0000        530
  46.1000        543
  46.2000        505
  46.3000        526
  46.4000        531
  46.5000        498
  46.6000        524
  46.7000        513
  46.8000        528
  46.9000        502
  47.0000        533
  47.1000        543
  47.2000        506
  47.3000        488
  47.4000        514
  47.5000        556
  47.6000        495
  47.7000        486
  47.8000        538
  47.9000        489
  48.0000        528
  48.1000        497
  48.2000        498
  48.3000        496
  48.4000        495
  48.5000        494
  48.6000        532
  48.7000        531
  48.8000        495
  48.9000        501
  49.0000        575
  49.1000        544
  49.2000        510
  49.3000        546
  49.4000        522
  49.5000        526
  49.6000        521
  49.7000        521
  49.8000        555
  49.9000        560
  50.0000        549
  50.1000        526
  50.2000        513
  50.3000        490
  50.4000        563
  50.5000        544
  50.6000        520
  50.7000        514
  50.8000        510
  50.9000        553
  51.0000        576
  51.1000        550
  51.2000        574
  51.3000        554
  51.4000        590
  51.5000        664
  51.6000        745
  51.7000        831
  51.8000        975
  51.9000       1078
  52.0000       1153
  52.1000       1168
  52.2000       1140
  52.3000       1143
  52.4000       1086
  52.5000        988
  52.6000        790
  52.7000        757
  52.8000        593
  52.9000        545
  53.0000        587
  53.1000        548
  53.2000        520
  53.3000        528
  53.4000        534
  53.5000        540
  53.6000        546
  53.7000        541
  53.8000        511
  53.9000        547
  54.0000        522
  54.1000        535
  54.2000        532
  54.3000        556
  54.4000        517
  54.5000        534
  54.6000        518
  54.7000        487
  54.8000        524
  54.9000        478
  55.0000        517
  55.1000        556
  55.2000        480
  55.3000        526
  55.4000        530
  55.5000        535
  55.6000        502
  55.7000        495
  55.8000        526
  55.9000        552
  56.0000        541
  56.1000        523
  56.2000        503
  56.3000        515
  56.4000        539
  56.5000        542
  56.6000        556
  56.7000        564
  56.8000        536
  56.9000        549
  57.0000        524
  57.1000        511
  57.2000        510
  57.3000        503
  57.4000        492
  57.5000        501
  57.6000        511
  57.7000        526
  57.8000        524
  57.9000        487
  58.0000        556
  58.1000        518
  58.2000        502
  58.3000        493
  58.4000        544
  58.5000        529
  58.6000        495
  58.7000        511
  58.8000        539
  58.9000        497
  59.0000        506
  59.1000        498
  59.2000        490
  59.3000        556
  59.4000        514
  59.5000        482
  59.6000        544
  59.7000        536
  59.8000        493
  59.9000        464
  60.0000        510
  60.1000        517
  60.2000        516
  60.3000        510
  60.4000        514
  60.5000        512
  60.6000        526
  60.7000        535
  60.8000        541
  60.9000        543
  61.0000        492
  61.1000        519
  61.2000        516
  61.3000        530
  61.4000        542
  61.5000        511
  61.6000        505
  61.7000        536
  61.8000        516
  61.9000        542
  62.0000        485
  62.1000        526
  62.2000        514
  62.3000        495
  62.4000        542
  62.5000        522
  62.6000        517
  62.7000        544
  62.8000        545
  62.9000        506
  63.0000        519
  63.1000        506
  63.2000        508
  63.3000        511
  63.4000        477
  63.5000        496
  63.6000        481
  63.7000        491
  63.8000        523
  63.9000        519
  64.0000        521
  64.1000        530
  64.2000        513
  64.3000        518
  64.4000        531
  64.5000        507
  64.6000        502
  64.7000        525
  64.8000        505
  64.9000        484
  65.0000        534
  65.1000        492
  65.2000        472
  65.3000        470
  65.4000        516
  65.5000        518
  65.6000        536
  65.7000        494
  65.8000        507
  65.9000        511
  66.0000        491
  66.1000        509
  66.2000        552
  66.3000        499
  66.4000        536
  66.5000        498
  66.6000        549
  66.7000        511
  66.8000        498
  66.9000        540
  67.0000        505
  67.1000        523
  67.2000        527
  67.3000        498
  67.4000        537
  67.5000        510
  67.6000        506
  67.7000        541
  67.8000        501
  67.9000        489
  68.0000        542
  68.1000        492
  68.2000        486
  68.3000        560
  68.4000        539
  68.5000        496
  68.6000        516
  68.7000        554
  68.8000        493
  68.9000        508
  69.0000        518
  69.1000        512
  69.2000        504
  69.3000        525
  69.4000        505
  69.5000        537
  69.6000        513
  69.7000        521
  69.8000        544
  69.9000        477
  70.0000        525
  70.1000        480
  70.2000        520
  70.3000        493
  70.4000        519
  70.5000        502
  70.6000        484
  70.7000        517
  70.8000        524
  70.9000        501
  71.0000        496
  71.1000        531
  71.2000        493
  71.3000        533
  71.4000        533
  71.5000        485
  71.6000        503
  71.7000        501
  71.8000        530
  71.9000        509
  72.0000        477
  72.1000        451
  72.2000        516
  72.3000        534
  72.4000        459
  72.5000        474
  72.6000        503
  72.7000        470
  72.8000        508
  72.9000        500
  73.0000        515
  73.1000        541
  73.2000        465
  73.3000        523
  73.4000        490
  73.5000        485
  73.6000        484
  73.7000        487
  73.8000        498
  73.9000        480
  74.0000        533
  74.1000        492
  74.2000        467
  74.3000        434
  74.4000        469
  74.5000        478
  74.6000        515
  74.7000        564
  74.8000        533
  74.9000        470
  75.0000        517
  75.1000        530
  75.2000        513
  75.3000        529
  75.4000        594
  75.5000        522
  75.6000        550
  75.7000        550
  75.8000        552
  75.9000        575
  76.0000        627
  76.1000        689
  76.2000        832
  76.3000        965
  76.4000       1026
  76.5000       1121
  76.6000       1259
  76.7000       1230
  76.8000       1308
  76.9000       1236
  77.0000       1176
  77.1000       1108
  77.2000        992
  77.3000        892
  77.4000        761
  77.5000        710
  77.6000        658
  77.7000        621
  77.8000        598
  77.9000        554
  78.0000        619
  78.1000        507
  78.2000        533
  78.3000        565
  78.4000        541
  78.5000        536
  78.6000        545
  78.7000        522
  78.8000        518
  78.9000        456
  79.0000        509
  79.1000        507
  79.2000        496
  79.3000        553
  79.4000        518
  79.5000        500
  79.6000        491
  79.7000        521
  79.8000        543
  79.9000        522
  80.0000        516
  80.1000        531
  80.2000        542
  80.3000        534
  80.4000        521
  80.5000        513
  80.6000        491
  80.7000        523
  80.8000        532
  80.9000        549
  81.0000        534
  81.1000        535
  81.2000        539
  81.3000        504
  81.4000        477
  81.5000        508
  81.6000        525
  81.7000        522
  81.8000        518
  81.9000        506
  82.0000        474
  82.1000        467
  82.2000        525
  82.3000        513
  82.4000        481
  82.5000        515
  82.6000        497
  82.7000        507
  82.8000        535
  82.9000        500
  83.0000        496
  83.1000        550
  83.2000        511
  83.3000        450
  83.4000        461
  83.5000        512
  83.6000        506
  83.7000        532
  83.8000        498
  83.9000        478
  84.0000        512
  84.1000        465
  84.2000        552
  84.3000        487
  84.4000        512
  84.5000        493
  84.6000        508
  84.7000        550
  84.8000        477
  84.9000        506
  85.0000        493
  85.1000        540
  85.2000        479
  85.3000        491
  85.4000        493
  85.5000        502
  85.6000        516
  85.7000        532
  85.8000        510
  85.9000        483
  86.0000        515
  86.1000        535
  86.2000        504
  86.3000        511
  86.4000        500
  86.5000        500
  86.6000        494
  86.7000        448
  86.8000        523
  86.9000        484
  87.0000        515
  87.1000        523
  87.2000        511
  87.3000        525
  87.4000        519
  87.5000        472
  87.6000        531
  87.7000        495
  87.8000        505
  87.9000        532
  88.0000        526
  88.1000        554
  88.2000        530
  88.3000        522
  88.4000        504
  88.5000        548
  88.6000        526
  88.7000        498
  88.8000        505
  88.9000        570
  89.0000        486
  89.1000        505
  89.2000        509
  89.3000        496
  89.4000        483
  89.5000        548
  89.6000        513
  89.7000        531
  89.8000        554
  89.9000        540
  90.0000        559
  90.1000        483
  90.2000        520
  90.3000        456
  90.4000        514
  90.5000        502
  90.6000        493
  90.7000        512
  90.8000        484
  90.9000        508
  91.0000        481
  91.1000        512
  91.2000        471
  91.3000        536
  91.4000        514
  91.5000        497
  91.6000        561
  91.7000        500
  91.8000        489
  91.9000        502
  92.0000        503
  92.1000        465
  92.2000        543
  92.3000        500
  92.4000        490
  92.5000        526
  92.6000        494
  92.7000        514
  92.8000        543
  92.9000        493
  93.0000        491
  93.1000        498
  93.2000        479
  93.3000        484
  93.4000        523
  93.5000        501
  93.6000        541
  93.7000        471
  93.8000        554
  93.9000        496
  94.0000        521
  94.1000        533
  94.2000        503
  94.3000        529
  94.4000        465
  94.5000        529
  94.6000        507
  94.7000        483
  94.8000        505
  94.9000        481
  95.0000        495
  95.1000        511
  95.2000        487
  95.3000        543
  95.4000        514
  95.5000        522
  95.6000        533
  95.7000        496
  95.8000        530
  95.9000        528
  96.0000        500
  96.1000        504
  96.2000        511
  96.3000        523
  96.4000        524
  96.5000        521
  96.6000        502
  96.7000        525
  96.8000        538
  96.9000        574
  97.0000        544
  97.1000        549
  97.2000        535
  97.3000        480
  97.4000        615
  97.5000        553
  97.6000        506
  97.7000        543
  97.8000        582
  97.9000        564
  98.0000        588
  98.1000        586
  98.2000        600
  98.3000        623
  98.4000        724
  98.5000        790
  98.6000        894
  98.7000       1077
  98.8000       1108
  98.9000       1315
  99.0000       1471
  99.1000       1577
  99.2000       1598
  99.3000       1725
  99.4000       1562
  99.5000       1517
  99.6000       1385
  99.7000       1241
  99.8000       1042
  99.9000        891
 100.0000        832
 100.1000        642
 100.2000        683
 100.3000        613
 100.4000        638
 100.5000        559
 100.6000        546
 100.7000        536
 100.8000        539
 100.9000        519
 101.0000        573
 101.1000        556
 101.2000        522
 101.3000        523
 101.4000        528
 101.5000        498
 101.6000        521
 101.7000        561
 101.8000        530
 101.9000        601
 102.0000        508
 102.1000        490
 102.2000        516
 102.3000        527
 102.4000        539
 102.5000        522
 102.6000        546
 102.7000        480
 102.8000        521
 102.9000        573
 103.0000        520
 103.1000        510
 103.2000        538
 103.3000        501
 103.4000        527
 103.5000        502
 103.6000        514
 103.7000        505
 103.8000        519
 103.9000        496
 104.0000        538
 104.1000        559
 104.2000        463
 104.3000        494
 104.4000        476
 104.5000        505
 104.6000        515
 104.7000        502
 104.8000        528
 104.9000        498
 105.0000        515
 105.1000        517
 105.2000        549
 105.3000        518
 105.4000        485
 105.5000        451
 105.6000        506
 105.7000        492
 105.8000        540
 105.9000        492
 106.0000        551
 106.1000        507
 106.2000        565
 106.3000        485
 106.4000        519
 106.5000        514
 106.6000        509
 106.7000        481
 106.8000        529
 106.9000        555
 107.0000        510
 107.1000        500
 107.2000        502
 107.3000        519
 107.4000        496
 107.5000        473
 107.6000        551
 107.7000        509
 107.8000        486
 107.9000        526
 108.0000        456
 108.1000        494
 108.2000        499
 108.3000        532
 108.4000        509
 108.5000        472
 108.6000        508
 108.7000        539
 108.8000        511
 108.9000        508
 109.0000        490
 109.1000        556
 109.2000        520
 109.3000        575
 109.4000        493
 109.5000        546
 109.6000        557
 109.7000        543
 109.8000        487
 109.9000        498
 110.0000        502
 110.1000        494
 110.2000        524
 110.3000        540
 110.4000        558
 110.5000        509
 110.6000        518
 110.7000        509
 110.8000        522
 110.9000        544
 111.0000        540
 111.1000        518
 111.2000        515
 111.3000        498
 111.4000        522
 111.5000        516
 111.6000        513
 111.7000        472
 111.8000        507
 111.9000        533
 112.0000        506
 112.1000        514
 112.2000        518
 112.3000        502
 112.4000        478
 112.5000        538
 112.6000        501
 112.7000        518
 112.8000        500
 112.9000        509
 113.0000        507
 113.1000        487
 113.2000        554
 113.3000        561
 113.4000        476
 113.5000        510
 113.6000        486
 113.7000        506
 113.8000        498
 113.9000        516
 114.0000        528
 114.1000        539
 114.2000        463
 114.3000        514
 114.4000        501
 114.5000        461
 114.6000        516
 114.7000        491
 114.8000        494
 114.9000        531
 115.0000        520
 115.1000        538
 115.2000        482
 115.3000        494
 115.4000        506
 115.5000        510
 115.6000        537
 115.7000        483
 115.8000        527
 115.9000        497
 116.0000        484
 116.1000        523
 116.2000        512
 116.3000        483
 116.4000        523
 116.5000        551
 116.6000        500
 116.7000        504
 116.8000        497
 116.9000        524
 117.0000        482
 117.1000        495
 117.2000        541
 117.3000        508
 117.4000        507
 117.5000        531
 117.6000        553
 117.7000        513
 117.8000        523
 117.9000        500
 118.0000        515
 118.1000        520
 118.2000        478
 118.3000        520
 118.4000        536
 118.5000        501
 118.6000        485
 118.7000        488
 118.8000        535
 118.9000        528
 119.0000        457
 119.1000        522
 119.2000        529
 119.3000        502
 119.4000        544
 119.5000        508
 119.6000        503
 119.7000        517
 119.8000        489
 119.9000        484
 120.0000        464
 120.1000        494
 120.2000        513
 120.3000        523
 120.4000        528
 120.5000        534
 120.6000        517
 120.7000        517
 120.8000        540
 120.9000        487
 121.0000        499
 121.1000        468
 121.2000        529
 121.3000        470
 121.4000        513
 121.5000        551
 121.6000        504
 121.7000        495
 121.8000        508
 121.9000        516
 122.0000        523
 122.1000        523
 122.2000        486
 122.3000        492
 122.4000        500
 122.5000        538
 122.6000        512
 122.7000        511
 122.8000        507
 122.9000        521
 123.0000        550
 123.1000        555
 123.2000        527
 123.3000        544
 123.4000        570
 123.5000        546
 123.6000        558
 123.7000        522
 123.8000        540
 123.9000        509
 124.0000        530
 124.1000        567
 124.2000        493
 124.3000        512
 124.4000        532
 124.5000        515
 124.6000        532
 124.7000        504
 124.8000        498
 124.9000        508
 125.0000        485
 125.1000        484
 125.2000        542
 125.3000        522
 125.4000        533
 125.5000        502
 125.6000        511
 125.7000        497
 125.8000        502
 125.9000        507
 126.0000        474
 126.1000        524
 126.2000        510
 126.3000        515
 126.4000        526
 126.5000        493
 126.6000        509
 126.7000        488
 126.8000        465
 126.9000        543
 127.0000        508
 127.1000        517
 127.2000        519
 127.3000        473
 127.4000        502
 127.5000        546
 127.6000        526
 127.7000        488
 127.8000        536
 127.9000        484
 128.0000        515
 128.1000        527
 128.2000        475
 128.3000        496
 128.4000        525
 128.5000        506
 128.6000        487
 128.7000        513
 128.8000        528
 128.9000        482
 129.0000        527
 129.1000        525
 129.2000        519
 129.3000        474
 129.4000        495
 129.5000        524
 129.6000        546
 129.7000        478
 129.8000        494
 129.9000        531
 130.0000        515

; Data for range 2
_DRIVE = COUPLED
_STEPTIME = 0.2
_STEPSIZE = 0.1
_STEPMODE = C
_START = 40
_THETA = 20
_2THETA = 40
_KHI = 10.5
_PHI = 60
_X = 0
_Y = 0
_Z = 0
_DETECTOR = 1
; Detector type : Scintillation counter
_HV = 687
_GAIN = 80
_LLD = 0.69
_ULD = 1.866
_DETECTORSLIT = unkn
_AUX1 = 0
_AUX2 = 0
_AUX3 = 0
_TIMESTARTED = 225
_TEMP_RATE = -1
_TEMP_DELAY = -1
_KV = 35
_MA = 40
_RANGE_WL = 1.78897
_3DPLANE = 0
_V4_ADDITIONALDETECTOR = 0
_V4_D8_DIBNUM = 1
_V4_DETECTORNAME = "Detector 1"
_V4_TTLDETECTOR = None
_V4_DETECTORTYPE = 1
_V4_DETECTORFLAGS = 524545
_V4_DETECTORHV = 687
_V4_DETECTORGAIN = 80
_V4_DETECTORLLD1 = 0.69
_V4_DETECTORWW1 = 1.176
_V4_DETECTORLLD2 = 0
_V4_DETECTORWW2 = 0
_V4_DETECTORPS = 0
_V4_DETECTORDT = 0
_V4_DETECTORPILEUPTIME = 0
_V4_COUNTERS_MASK = 1
_V4_DRIVES_MASK = 0
_V4_ENCODERS_MASK = 0
_2THETACOUNTS = 1
; 2THETA  Cnt1_D1
  40.0000        547
  40.1000        550
  40.2000        574
  40.3000        510
  40.4000        527
  40.5000        515
  40.6000        531
  40.7000        496
  40.8000        533
  40.9000        522
  41.0000        482
  41.1000        501
  41.2000        506
  41.3000        488
  41.4000        502
  41.5000        567
  41.6000        493
  41.7000        533
  41.8000        505
  41.9000        502
  42.0000        546
  42.1000        513
  42.2000        546
  42.3000        477
  42.4000        527
  42.5000        535
  42.6000        502
  42.7000        540
  42.8000        542
  42.9000        488
  43.0000        496
  43.1000        503
  43.2000        552
  43.3000        531
  43.4000        540
  43.5000        546
  43.6000        516
  43.7000        513
  43.8000        510
  43.9000        525
  44.0000        507
  44.1000        502
  44.2000        546
  44.3000        517
  44.4000        526
  44.5000        528
  44.6000        523
  44.7000        535
  44.8000        584
  44.9000        528
  45.0000        477
  45.1000        501
  45.2000        530
  45.3000        516
  45.4000        503
  45.5000        529
  45.6000        545
  45.7000        505
  45.8000        529
  45.9000        520
  46.0000        519
  46.1000        497
  46.2000        559
  46.3000        538
  46.4000        513
  46.5000        511
  46.6000        565
  46.7000        572
  46.8000        588
  46.9000        540
  47.0000        546
  47.1000        531
  47.2000        521
  47.3000        502
  47.4000        550
  47.5000        525
  47.6000        522
  47.7000        495
  47.8000        540
  47.9000        521
  48.0000        532
  48.1000        521
  48.2000        518
  48.3000        512
  48.4000        522
  48.5000        504
  48.6000        525
  48.7000        532
  48.8000        499
  48.9000        534
  49.0000        525
  49.1000        500
  49.2000        506
  49.3000        555
  49.4000        485
  49.5000        476
  49.6000        523
  49.7000        508
  49.8000        511
  49.9000        505
  50.0000        506
  50.1000        516
  50.2000        532
  50.3000        483
  50.4000        555
  50.5000        528
  50.6000        523
  50.7000        513
  50.8000        549
  50.9000        535
  51.0000        550
  51.1000        560
  51.2000        589
  51.3000        603
  51.4000        661
  51.5000        729
  51.6000        827
  51.7000       1059
  51.8000       1199
  51.9000       1275
  52.0000       1385
  52.1000       1325
  52.2000       1356
  52.3000       1364
  52.4000       1270
  52.5000       1104
  52.6000        885
  52.7000        812
  52.8000        652
  52.9000        613
  53.0000        532
  53.1000        558
  53.2000        526
  53.3000        521
  53.4000        513
  53.5000        535
  53.6000        525
  53.7000        537
  53.8000        548
  53.9000        505
  54.0000        560
  54.1000        539
  54.2000        490
  54.3000        530
  54.4000        495
  54.5000        487
  54.6000        500
  54.7000        518
  54.8000        542
  54.9000        519
  55.0000        551
  55.1000        472
  55.2000        512
  55.3000        491
  55.4000        527
  55.5000        479
  55.6000        522
  55.7000        533
  55.8000        516
  55.9000        573
  56.0000        522
  56.1000        512
  56.2000        481
  56.3000        494
  56.4000        572
  56.5000        537
  56.6000        513
  56.7000        510
  56.8000        517
  56.9000        495
  57.0000        503
  57.1000        492
  57.2000        528
  57.3000        495
  57.4000        490
  57.5000        511
  57.6000        508
  57.7000        532
  57.8000        506
  57.9000        540
  58.0000        507
  58.1000        501
  58.2000        536
  58.3000        533
  58.4000        540
  58.5000        565
  58.6000        530
  58.7000        501
  58.8000        531
  58.9000        539
  59.0000        528
  59.1000        511
  59.2000        510
  59.3000        530
  59.4000        523
  59.5000        537
  59.6000        529
  59.7000        515
  59.8000        497
  59.9000        503
  60.0000        514
  60.1000        512
  60.2000        505
  60.3000        477
  60.4000        520
  60.5000        525
  60.6000        506
  60.7000        499
  60.8000        477
  60.9000        527
  61.0000        470
  61.1000        487
  61.2000        556
  61.3000        499
  61.4000        510
  61.5000        516
  61.6000        522
  61.7000        472
  61.8000        507
  61.9000        565
  62.0000        477
  62.1000        477
  62.2000        597
  62.3000        499
  62.4000        485
  62.5000        526
  62.6000        497
  62.7000        531
  62.8000        516
  62.9000        513
  63.0000        474
  63.1000        516
  63.2000        511
  63.3000        496
  63.4000        500
  63.5000        519
  63.6000        514
  63.7000        501
  63.8000        512
  63.9000        523
  64.0000        506
  64.1000        538
  64.2000        532
  64.3000        537
  64.4000        536
  64.5000        485
  64.6000        526
  64.7000        499
  64.8000        512
  64.9000        542
  65.0000        463
  65.1000        480
  65.2000        555
  65.3000        499
  65.4000        540
  65.5000        490
  65.6000        517
  65.7000        516
  65.8000        493
  65.9000        501
  66.0000        510
  66.1000        528
  66.2000        536
  66.3000        509
  66.4000        508
  66.5000        513
  66.6000        460
  66.7000        514
  66.8000        502
  66.9000        510
  67.0000        506
  67.1000        488
  67.2000        478
  67.3000        535
  67.4000        475
  67.5000        548
  67.6000        477
  67.7000        509
  67.8000        504
  67.9000        553
  68.0000        512
  68.1000        510
  68.2000        506
  68.3000        473
  68.4000        512
  68.5000        482
  68.6000        499
  68.7000        479
  68.8000        509
  68.9000        484
  69.0000        482
  69.1000        514
  69.2000        538
  69.3000        551
  69.4000        542
  69.5000        465
  69.6000        550
  69.7000        497
  69.8000        500
  69.9000        489
  70.0000        501
  70.1000        484
  70.2000        491
  70.3000        513
  70.4000        548
  70.5000        489
  70.6000        527
  70.7000        549
  70.8000        495
  70.9000        526
  71.0000        515
  71.1000        503
  71.2000        532
  71.3000        470
  71.4000        513
  71.5000        515
  71.6000        496
  71.7000        505
  71.8000        536
  71.9000        485
  72.0000        494
  72.1000        500
  72.2000        547
  72.3000        508
  72.4000        501
  72.5000        509
  72.6000        538
  72.7000        491
  72.8000        504
  72.9000        491
  73.0000        471
  73.1000        480
  73.2000        526
  73.3000        526
  73.4000        540
  73.5000        483
  73.6000        513
  73.7000        500
  73.8000        478
  73.9000        505
  74.0000        501
  74.1000        516
  74.2000        482
  74.3000        519
  74.4000        476
  74.5000        494
  74.6000        556
  74.7000        558
  74.8000        526
  74.9000        521
  75.0000        469
  75.1000        510
  75.2000        521
  75.3000        535
  75.4000        490
  75.5000        514
  75.6000        508
  75.7000        535
  75.8000        486
  75.9000        568
  76.0000        538
  76.1000        574
  76.2000        585
  76.3000        593
  76.4000        658
  76.5000        653
  76.6000        650
  76.7000        718
  76.8000        684
  76.9000        746
  77.0000        683
  77.1000        664
  77.2000        624
  77.3000        602
  77.4000        599
  77.5000        586
  77.6000        545
  77.7000        534
  77.8000        529
  77.9000        490
  78.0000        501
  78.1000        508
  78.2000        492
  78.3000        519
  78.4000        520
  78.5000        509
  78.6000        504
  78.7000        520
  78.8000        515
  78.9000        475
  79.0000        528
  79.1000        503
  79.2000        537
  79.3000        481
  79.4000        507
  79.5000        529
  79.6000        490
  79.7000        508
  79.8000        525
  79.9000        478
  80.0000        498
  80.1000        537
  80.2000        532
  80.3000        487
  80.4000        519
  80.5000        513
  80.6000        548
  80.7000        504
  80.8000        493
  80.9000        467
  81.0000        510
  81.1000        503
  81.2000        495
  81.3000        514
  81.4000        529
  81.5000        518
  81.6000        514
  81.7000        489
  81.8000        528
  81.9000        529
  82.0000        481
  82.1000        457
  82.2000        478
  82.3000        462
  82.4000        485
  82.5000        490
  82.6000        516
  82.7000        490
  82.8000        522
  82.9000        506
  83.0000        460
  83.1000        488
  83.2000        469
  83.3000        492
  83.4000        485
  83.5000        538
  83.6000        481
  83.7000        513
  83.8000        525
  83.9000        499
  84.0000        505
  84.1000        534
  84.2000        516
  84.3000        466
  84.4000        507
  84.5000        458
  84.6000        516
  84.7000        543
  84.8000        511
  84.9000        502
  85.0000        505
  85.1000        445
  85.2000        535
  85.3000        515
  85.4000        520
  85.5000        541
  85.6000        484
  85.7000        490
  85.8000        542
  85.9000        510
  86.0000        497
  86.1000        523
  86.2000        488
  86.3000        535
  86.4000        510
  86.5000        482
  86.6000        457
  86.7000        513
  86.8000        464
  86.9000        504
  87.0000        488
  87.1000        519
  87.2000        512
  87.3000        477
  87.4000        499
  87.5000        529
  87.6000        527
  87.7000        496
  87.8000        523
  87.9000        492
  88.0000        506
  88.1000        527
  88.2000        487
  88.3000        537
  88.4000        512
  88.5000        519
  88.6000        507
  88.7000        483
  88.8000        535
  88.9000        483
  89.0000        476
  89.1000        497
  89.2000        514
  89.3000        492
  89.4000        476
  89.5000        544
  89.6000        490
  89.7000        519
  89.8000        521
  89.9000        515
  90.0000        504
  90.1000        506
  90.2000        518
  90.3000        535
  90.4000        527
  90.5000        512
  90.6000        464
  90.7000        530
  90.8000        497
  90.9000        530
  91.0000        492
  91.1000        508
  91.2000        489
  91.3000        497
  91.4000        539
  91.5000        467
  91.6000        529
  91.7000        468
  91.8000        487
  91.9000        507
  92.0000        504
  92.1000        548
  92.2000        503
  92.3000        516
  92.4000        504
  92.5000        519
  92.6000        486
  92.7000        496
  92.8000        512
  92.9000        498
  93.0000        485
  93.1000        471
  93.2000        493
  93.3000        505
  93.4000        482
  93.5000        506
  93.6000        469
  93.7000        536
  93.8000        527
  93.9000        499
  94.0000        503
  94.1000        501
  94.2000        485
  94.3000        548
  94.4000        518
  94.5000        535
  94.6000        534
  94.7000        475
  94.8000        590
  94.9000        525
  95.0000        475
  95.1000        522
  95.2000        511
  95.3000        510
  95.4000        477
  95.5000        539
  95.6000        500
  95.7000        537
  95.8000        474
  95.9000        499
  96.0000        522
  96.1000        473
  96.2000        525
  96.3000        507
  96.4000        513
  96.5000        524
  96.6000        512
  96.7000        500
  96.8000        501
  96.9000        498
  97.0000        503
  97.1000        536
  97.2000        493
  97.3000        548
  97.4000        511
  97.5000        497
  97.6000        532
  97.7000        522
  97.8000        492
  97.9000        541
  98.0000        584
  98.1000        528
  98.2000        542
  98.3000        563
  98.4000        593
  98.5000        588
  98.6000        671
  98.7000        709
  98.8000        846
  98.9000        820
  99.0000        896
  99.1000        910
  99.2000        904
  99.3000        955
  99.4000        951
  99.5000        902
  99.6000        855
  99.7000        809
  99.8000        735
  99.9000        732
 100.0000        687
 100.1000        572
 100.2000        598
 100.3000        554
 100.4000        559
 100.5000        570
 100.6000        489
 100.7000        501
 100.8000        540
 100.9000        537
 101.0000        505
 101.1000        515
 101.2000        515
 101.3000        488
 101.4000        474
 101.5000        479
 101.6000        501
 101.7000        487
 101.8000        535
 101.9000        515
 102.0000        482
 102.1000        477
 102.2000        479
 102.3000        488
 102.4000        493
 102.5000        468
 102.6000        510
 102.7000        526
 102.8000        499
 102.9000        514
 103.0000        494
 103.1000        492
 103.2000        492
 103.3000        496
 103.4000        468
 103.5000        495
 103.6000        497
 103.7000        487
 103.8000        488
 103.9000        532
 104.0000        481
 104.1000        540
 104.2000        506
 104.3000        526
 104.4000        530
 104.5000        487
 104.6000        527
 104.7000        547
 104.8000        521
 104.9000        457
 105.0000        501
 105.1000        486
 105.2000        513
 105.3000        498
 105.4000        495
 105.5000        482
 105.6000        485
 105.7000        513
 105.8000        533
 105.9000        510
 106.0000        482
 106.1000        540
 106.2000        532
 106.3000        488
 106.4000        533
 106.5000        527
 106.6000        495
 106.7000        519
 106.8000        510
 106.9000        512
 107.0000        511
 107.1000        454
 107.2000        523
 107.3000        524
 107.4000        552
 107.5000        509
 107.6000        475
 107.7000        504
 107.8000        473
 107.9000        547
 108.0000        490
 108.1000        482
 108.2000        455
 108.3000        469
 108.4000        503
 108.5000        523
 108.6000        489
 108.7000        514
 108.8000        506
 108.9000        514
 109.0000        498
 109.1000        513
 109.2000        547
 109.3000        519
 109.4000        510
 109.5000        534
 109.6000        519
 109.7000        465
 109.8000        483
 109.9000        470
 110.0000        535
 110.1000        474
 110.2000        524
 110.3000        477
 110.4000        496
 110.5000        501
 110.6000        531
 110.7000        474
 110.8000        514
 110.9000        509
 111.0000        488
 111.1000        489
 111.2000        495
 111.3000        478
 111.4000        534
 111.5000        524
 111.6000        501
 111.7000        488
 111.8000        472
 111.9000        516
 112.0000        511
 112.1000        543
 112.2000        483
 112.3000        487
 112.4000        508
 112.5000        512
 112.6000        502
 112.7000        541
 112.8000        487
 112.9000        483
 113.0000        491
 113.1000        480
 113.2000        497
 113.3000        460
 113.4000        473
 113.5000        508
 113.6000        481
 113.7000        546
 113.8000        514
 113.9000        562
 114.0000        526
 114.1000        506
 114.2000        501
 114.3000        455
 114.4000        512
 114.5000        534
 114.6000        459
 114.7000        510
 114.8000        474
 114.9000        496
 115.0000        530
 115.1000        483
 115.2000        552
 115.3000        525
 115.4000        462
 115.5000        539
 115.6000        486
 115.7000        489
 115.8000        504
 115.9000        519
 116.0000        517
 116.1000        533
 116.2000        532
 116.3000        491
 116.4000        496
 116.5000        480
 116.6000        505
 116.7000        486
 116.8000        482
 116.9000        498
 117.0000        475
 117.1000        492
 117.2000        551
 117.3000        505
 117.4000        491
 117.5000        457
 117.6000        484
 117.7000        487
 117.8000        482
 117.9000        512
 118.0000        518
 118.1000        480
 118.2000        500
 118.3000        490
 118.4000        509
 118.5000        514
 118.6000        499
 118.7000        519
 118.8000        495
 118.9000        517
 119.0000        499
 119.1000        512
 119.2000        494
 119.3000        531
 119.4000        496
 119.5000        543
 119.6000        456
 119.7000        491
 119.8000        509
 119.9000        512
 120.0000        507
 120.1000        518
 120.2000        491
 120.3000        522
 120.4000        511
 120.5000        453
 120.6000        513
 120.7000        486
 120.8000        477
 120.9000        500
 121.0000        476
 121.1000        502
 121.2000        500
 121.3000        514
 121.4000        500
 121.5000        517
 121.6000        464
 121.7000        515
 121.8000        557
 121.9000        506
 122.0000        546
 122.1000        545
 122.2000        517
 122.3000        559
 122.4000        528
 122.5000        510
 122.6000        537
 122.7000        556
 122.8000        584
 122.9000        513
 123.0000        512
 123.1000        544
 123.2000        551
 123.3000        626
 123.4000        525
 123.5000        595
 123.6000        570
 123.7000        563
 123.8000        522
 123.9000        509
 124.0000        537
 124.1000        519
 124.2000        538
 124.3000        533
 124.4000        497
 124.5000        518
 124.6000        542
 124.7000        506
 124.8000        479
 124.9000        537
 125.0000        510
 125.1000        517
 125.2000        518
 125.3000        542
 125.4000        537
 125.5000        508
 125.6000        473
 125.7000        483
 125.8000        515
 125.9000        464
 126.0000        491
 126.1000        488
 126.2000        517
 126.3000        505
 126.4000        535
 126.5000        496
 126.6000        513
 126.7000        503
 126.8000        544
 126.9000        511
 127.0000        539
 127.1000        510
 127.2000        492
 127.3000        490
 127.4000        527
 127.5000        504
 127.6000        475
[...]
 129.1000        449
 129.2000        437
 129.3000        440
 129.4000        439
 129.5000        446
 129.6000        436
 129.7000        456
 129.8000        420
 129.9000        460
 130.0000        483

; Data for range 53
_DRIVE = COUPLED
_STEPTIME = 0.2
_STEPSIZE = 0.1
_STEPMODE = C
_START = 40
_THETA = 20
_2THETA = 40
_KHI = 80
_PHI = 0
_X = 0
_Y = 0
_Z = 0
_DETECTOR = 1
; Detector type : Scintillation counter
_HV = 687
_GAIN = 80
_LLD = 0.69
_ULD = 1.866
_DETECTORSLIT = unkn
_AUX1 = 0
_AUX2 = 0
_AUX3 = 0
_TIMESTARTED = 1.03e+004
_TEMP_RATE = -1
_TEMP_DELAY = -1
_KV = 35
_MA = 40
_RANGE_WL = 1.78897
_3DPLANE = 0
_V4_ADDITIONALDETECTOR = 0
_V4_D8_DIBNUM = 1
_V4_DETECTORNAME = "Detector 1"
_V4_TTLDETECTOR = None
_V4_DETECTORTYPE = 1
_V4_DETECTORFLAGS = 524545
_V4_DETECTORHV = 687
_V4_DETECTORGAIN = 80
_V4_DETECTORLLD1 = 0.69
_V4_DETECTORWW1 = 1.176
_V4_DETECTORLLD2 = 0
_V4_DETECTORWW2 = 0
_V4_DETECTORPS = 0
_V4_DETECTORDT = 0
_V4_DETECTORPILEUPTIME = 0
_V4_COUNTERS_MASK = 1
_V4_DRIVES_MASK = 0
_V4_ENCODERS_MASK = 0
_2THETACOUNTS = 1
; 2THETA  Cnt1_D1
  40.0000        198
  40.1000        183
  40.2000        150
  40.3000        203
  40.4000        189
  40.5000        195
  40.6000        203
  40.7000        207
  40.8000        201
  40.9000        193
  41.0000        200
  41.1000        203
  41.2000        150
  41.3000        177
  41.4000        176
  41.5000        198
  41.6000        193
  41.7000        204
  41.8000        187
  41.9000        189
  42.0000        198
  42.1000        198
  42.2000        228
  42.3000        200
  42.4000        201
  42.5000        220
  42.6000        247
  42.7000        210
  42.8000        258
  42.9000        266
  43.0000        284
  43.1000        319
  43.2000        288
  43.3000        303
  43.4000        293
  43.5000        281
  43.6000        294
  43.7000        287
  43.8000        276
  43.9000        239
  44.0000        223
  44.1000        231
  44.2000        206
  44.3000        207
  44.4000        237
  44.5000        202
  44.6000        202
  44.7000        224
  44.8000        208
  44.9000        203
  45.0000        217
  45.1000        193
  45.2000        209
  45.3000        186
  45.4000        190
  45.5000        201
  45.6000        192
  45.7000        212
  45.8000        181
  45.9000        205
  46.0000        215
  46.1000        204
  46.2000        210
  46.3000        206
  46.4000        225
  46.5000        213
  46.6000        216
  46.7000        223
  46.8000        203
  46.9000        208
  47.0000        216
  47.1000        210
  47.2000        206
  47.3000        216
  47.4000        220
  47.5000        188
  47.6000        200
  47.7000        208
  47.8000        218
  47.9000        213
  48.0000        199
  48.1000        200
  48.2000        231
  48.3000        192
  48.4000        233
  48.5000        193
  48.6000        214
  48.7000        212
  48.8000        222
  48.9000        209
  49.0000        212
  49.1000        244
  49.2000        244
  49.3000        219
  49.4000        222
  49.5000        196
  49.6000        225
  49.7000        265
  49.8000        255
  49.9000        292
  50.0000        241
  50.1000        241
  50.2000        280
  50.3000        273
  50.4000        328
  50.5000        277
  50.6000        317
  50.7000        282
  50.8000        276
  50.9000        306
  51.0000        312
  51.1000        379
  51.2000        363
  51.3000        420
  51.4000        524
  51.5000        550
  51.6000        613
  51.7000        760
  51.8000        765
  51.9000        841
  52.0000        960
  52.1000        962
  52.2000       1042
  52.3000        962
  52.4000        968
  52.5000       1012
  52.6000        941
  52.7000        890
  52.8000        856
  52.9000        821
  53.0000        730
  53.1000        662
  53.2000        568
  53.3000        427
  53.4000        399
  53.5000        373
  53.6000        287
  53.7000        254
  53.8000        270
  53.9000        259
  54.0000        256
  54.1000        280
  54.2000        245
  54.3000        274
  54.4000        245
  54.5000        274
  54.6000        256
  54.7000        241
  54.8000        260
  54.9000        248
  55.0000        250
  55.1000        244
  55.2000        218
  55.3000        252
  55.4000        258
  55.5000        214
  55.6000        239
  55.7000        248
  55.8000        216
  55.9000        246
  56.0000        241
  56.1000        269
  56.2000        248
  56.3000        262
  56.4000        258
  56.5000        264
  56.6000        265
  56.7000        254
  56.8000        241
  56.9000        260
  57.0000        253
  57.1000        236
  57.2000        226
  57.3000        241
  57.4000        259
  57.5000        245
  57.6000        238
  57.7000        226
  57.8000        264
  57.9000        239
  58.0000        271
  58.1000        251
  58.2000        253
  58.3000        245
  58.4000        246
  58.5000        265
  58.6000        281
  58.7000        234
  58.8000        240
  58.9000        241
  59.0000        218
  59.1000        263
  59.2000        247
  59.3000        272
  59.4000        256
  59.5000        267
  59.6000        245
  59.7000        252
  59.8000        254
  59.9000        260
  60.0000        266
  60.1000        275
  60.2000        275
  60.3000        278
  60.4000        264
  60.5000        273
  60.6000        221
  60.7000        269
  60.8000        233
  60.9000        272
  61.0000        254
  61.1000        250
  61.2000        254
  61.3000        250
  61.4000        259
  61.5000        294
  61.6000        256
  61.7000        252
  61.8000        245
  61.9000        257
  62.0000        221
  62.1000        276
  62.2000        293
  62.3000        272
  62.4000        239
  62.5000        276
  62.6000        250
  62.7000        253
  62.8000        242
  62.9000        262
  63.0000        262
  63.1000        254
  63.2000        261
  63.3000        262
  63.4000        252
  63.5000        261
  63.6000        261
  63.7000        275
  63.8000        281
  63.9000        251
  64.0000        261
  64.1000        265
  64.2000        285
  64.3000        266
  64.4000        264
  64.5000        311
  64.6000        239
  64.7000        259
  64.8000        251
  64.9000        281
  65.0000        251
  65.1000        267
  65.2000        292
  65.3000        261
  65.4000        266
  65.5000        284
  65.6000        277
  65.7000        292
  65.8000        281
  65.9000        269
  66.0000        258
  66.1000        298
  66.2000        283
  66.3000        270
  66.4000        254
  66.5000        280
  66.6000        282
  66.7000        271
  66.8000        254
  66.9000        281
  67.0000        278
  67.1000        255
  67.2000        252
  67.3000        284
  67.4000        279
  67.5000        306
  67.6000        286
  67.7000        254
  67.8000        261
  67.9000        299
  68.0000        272
  68.1000        256
  68.2000        271
  68.3000        283
  68.4000        273
  68.5000        254
  68.6000        271
  68.7000        265
  68.8000        289
  68.9000        276
  69.0000        278
  69.1000        275
  69.2000        268
  69.3000        283
  69.4000        285
  69.5000        302
  69.6000        291
  69.7000        284
  69.8000        302
  69.9000        271
  70.0000        279
  70.1000        277
  70.2000        262
  70.3000        288
  70.4000        278
  70.5000        282
  70.6000        273
  70.7000        316
  70.8000        272
  70.9000        299
  71.0000        273
  71.1000        281
  71.2000        267
  71.3000        283
  71.4000        291
  71.5000        262
  71.6000        294
  71.7000        270
  71.8000        287
  71.9000        271
  72.0000        278
  72.1000        305
  72.2000        280
  72.3000        281
  72.4000        270
  72.5000        314
  72.6000        317
  72.7000        275
  72.8000        301
  72.9000        323
  73.0000        327
  73.1000        329
  73.2000        301
  73.3000        300
  73.4000        302
  73.5000        299
  73.6000        274
  73.7000        318
  73.8000        321
  73.9000        323
  74.0000        307
  74.1000        319
  74.2000        293
  74.3000        303
  74.4000        281
  74.5000        315
  74.6000        315
  74.7000        301
  74.8000        318
  74.9000        343
  75.0000        305
  75.1000        309
  75.2000        298
  75.3000        324
  75.4000        311
  75.5000        342
  75.6000        321
  75.7000        359
  75.8000        354
  75.9000        309
  76.0000        363
  76.1000        349
  76.2000        361
  76.3000        362
  76.4000        335
  76.5000        361
  76.6000        331
  76.7000        337
  76.8000        359
  76.9000        371
  77.0000        345
  77.1000        355
  77.2000        375
  77.3000        348
  77.4000        352
  77.5000        349
  77.6000        342
  77.7000        336
  77.8000        330
  77.9000        310
  78.0000        315
  78.1000        337
  78.2000        312
  78.3000        302
  78.4000        350
  78.5000        308
  78.6000        322
  78.7000        343
  78.8000        289
  78.9000        327
  79.0000        353
  79.1000        332
  79.2000        328
  79.3000        307
  79.4000        309
  79.5000        300
  79.6000        302
  79.7000        353
  79.8000        319
  79.9000        336
  80.0000        372
  80.1000        315
  80.2000        314
  80.3000        339
  80.4000        312
  80.5000        312
  80.6000        312
  80.7000        344
  80.8000        342
  80.9000        325
  81.0000        309
  81.1000        309
  81.2000        340
  81.3000        347
  81.4000        320
  81.5000        326
  81.6000        354
  81.7000        321
  81.8000        356
  81.9000        327
  82.0000        311
  82.1000        319
  82.2000        336
  82.3000        288
  82.4000        331
  82.5000        339
  82.6000        325
  82.7000        332
  82.8000        309
  82.9000        368
  83.0000        340
  83.1000        342
  83.2000        366
  83.3000        330
  83.4000        319
  83.5000        309
  83.6000        323
  83.7000        308
  83.8000        335
  83.9000        361
  84.0000        361
  84.1000        360
  84.2000        320
  84.3000        335
  84.4000        379
  84.5000        344
  84.6000        318
  84.7000        342
  84.8000        316
  84.9000        345
  85.0000        337
  85.1000        348
  85.2000        346
  85.3000        343
  85.4000        343
  85.5000        338
  85.6000        353
  85.7000        341
  85.8000        345
  85.9000        319
  86.0000        351
  86.1000        348
  86.2000        341
  86.3000        313
  86.4000        317
  86.5000        330
  86.6000        335
  86.7000        373
  86.8000        334
  86.9000        329
  87.0000        345
  87.1000        375
  87.2000        367
  87.3000        349
  87.4000        367
  87.5000        339
  87.6000        332
  87.7000        334
  87.8000        350
  87.9000        358
  88.0000        321
  88.1000        343
  88.2000        352
  88.3000        332
  88.4000        360
  88.5000        354
  88.6000        363
  88.7000        347
  88.8000        332
  88.9000        327
  89.0000        377
  89.1000        312
  89.2000        353
  89.3000        339
  89.4000        339
  89.5000        353
  89.6000        356
  89.7000        373
  89.8000        341
  89.9000        352
  90.0000        373
  90.1000        362
  90.2000        337
  90.3000        360
  90.4000        346
  90.5000        346
  90.6000        362
  90.7000        325
  90.8000        344
  90.9000        404
  91.0000        383
  91.1000        356
  91.2000        358
  91.3000        360
  91.4000        368
  91.5000        387
  91.6000        340
  91.7000        364
  91.8000        372
  91.9000        363
  92.0000        389
  92.1000        371
  92.2000        355
  92.3000        342
  92.4000        347
  92.5000        403
  92.6000        344
  92.7000        356
  92.8000        374
  92.9000        397
  93.0000        380
  93.1000        376
  93.2000        384
  93.3000        353
  93.4000        338
  93.5000        369
  93.6000        357
  93.7000        410
  93.8000        383
  93.9000        369
  94.0000        367
  94.1000        351
  94.2000        409
  94.3000        411
  94.4000        389
  94.5000        343
  94.6000        335
  94.7000        365
  94.8000        337
  94.9000        355
  95.0000        367
  95.1000        381
  95.2000        360
  95.3000        378
  95.4000        371
  95.5000        420
  95.6000        387
  95.7000        373
  95.8000        354
  95.9000        378
  96.0000        376
  96.1000        338
  96.2000        374
  96.3000        372
  96.4000        368
  96.5000        380
  96.6000        423
  96.7000        408
  96.8000        401
  96.9000        404
  97.0000        385
  97.1000        371
  97.2000        353
  97.3000        394
  97.4000        378
  97.5000        433
  97.6000        443
  97.7000        441
  97.8000        460
  97.9000        456
  98.0000        453
  98.1000        497
  98.2000        525
  98.3000        580
  98.4000        576
  98.5000        566
  98.6000        618
  98.7000        638
  98.8000        672
  98.9000        645
  99.0000        664
  99.1000        701
  99.2000        653
  99.3000        663
  99.4000        667
  99.5000        647
  99.6000        649
  99.7000        586
  99.8000        579
  99.9000        537
 100.0000        566
 100.1000        513
 100.2000        508
 100.3000        515
 100.4000        453
 100.5000        493
 100.6000        447
 100.7000        416
 100.8000        439
 100.9000        425
 101.0000        397
 101.1000        415
 101.2000        424
 101.3000        401
 101.4000        387
 101.5000        362
 101.6000        368
 101.7000        385
 101.8000        397
 101.9000        408
 102.0000        385
 102.1000        396
 102.2000        423
 102.3000        381
 102.4000        440
 102.5000        399
 102.6000        426
 102.7000        421
 102.8000        414
 102.9000        375
 103.0000        403
 103.1000        408
 103.2000        401
 103.3000        358
 103.4000        371
 103.5000        409
 103.6000        385
 103.7000        420
 103.8000        359
 103.9000        434
 104.0000        402
 104.1000        416
 104.2000        400
 104.3000        402
 104.4000        446
 104.5000        442
 104.6000        406
 104.7000        418
 104.8000        415
 104.9000        396
 105.0000        446
 105.1000        398
 105.2000        398
 105.3000        412
 105.4000        418
 105.5000        397
 105.6000        410
 105.7000        454
 105.8000        398
 105.9000        421
 106.0000        406
 106.1000        379
 106.2000        412
 106.3000        434
 106.4000        413
 106.5000        402
 106.6000        409
 106.7000        446
 106.8000        406
 106.9000        430
 107.0000        415
 107.1000        397
 107.2000        433
 107.3000        420
 107.4000        419
 107.5000        437
 107.6000        416
 107.7000        419
 107.8000        422
 107.9000        420
 108.0000        395
 108.1000        434
 108.2000        400
 108.3000        441
 108.4000        427
 108.5000        430
 108.6000        406
 108.7000        418
 108.8000        477
 108.9000        423
 109.0000        452
 109.1000        420
 109.2000        408
 109.3000        435
 109.4000        415
 109.5000        431
 109.6000        397
 109.7000        381
 109.8000        417
 109.9000        421
 110.0000        436
 110.1000        422
 110.2000        430
 110.3000        441
 110.4000        453
 110.5000        380
 110.6000        434
 110.7000        415
 110.8000        430
 110.9000        414
 111.0000        438
 111.1000        396
 111.2000        424
 111.3000        430
 111.4000        405
 111.5000        455
 111.6000        438
 111.7000        403
 111.8000        408
 111.9000        409
 112.0000        458
 112.1000        479
 112.2000        453
 112.3000        410
 112.4000        413
 112.5000        423
 112.6000        428
 112.7000        445
 112.8000        426
 112.9000        422
 113.0000        430
 113.1000        452
 113.2000        410
 113.3000        444
 113.4000        406
 113.5000        419
 113.6000        464
 113.7000        403
 113.8000        435
 113.9000        482
 114.0000        450
 114.1000        434
 114.2000        482
 114.3000        391
 114.4000        410
 114.5000        428
 114.6000        434
 114.7000        461
 114.8000        430
 114.9000        428
 115.0000        446
 115.1000        431
 115.2000        439
 115.3000        391
 115.4000        450
 115.5000        436
 115.6000        448
 115.7000        417
 115.8000        425
 115.9000        413
 116.0000        450
 116.1000        455
 116.2000        452
 116.3000        445
 116.4000        446
 116.5000        459
 116.6000        459
 116.7000        404
 116.8000        506
 116.9000        443
 117.0000        469
 117.1000        445
 117.2000        431
 117.3000        431
 117.4000        466
 117.5000        441
 117.6000        477
 117.7000        447
 117.8000        486
 117.9000        439
 118.0000        451
 118.1000        488
 118.2000        444
 118.3000        451
 118.4000        468
 118.5000        458
 118.6000        436
 118.7000        484
 118.8000        444
 118.9000        453
 119.0000        461
 119.1000        437
 119.2000        420
 119.3000        427
 119.4000        445
 119.5000        433
 119.6000        433
 119.7000        449
 119.8000        418
 119.9000        425
 120.0000        462
 120.1000        391
 120.2000        439
 120.3000        420
 120.4000        467
 120.5000        472
 120.6000        434
 120.7000        449
 120.8000        439
 120.9000        447
 121.0000        441
 121.1000        450
 121.2000        430
 121.3000        426
 121.4000        450
 121.5000        477
 121.6000        448
 121.7000        463
 121.8000        454
 121.9000        491
 122.0000        451
 122.1000        495
 122.2000        522
 122.3000        495
 122.4000        531
 122.5000        549
 122.6000        553
 122.7000        572
 122.8000        588
 122.9000        578
 123.0000        583
 123.1000        584
 123.2000        554
 123.3000        626
 123.4000        595
 123.5000        582
 123.6000        590
 123.7000        520
 123.8000        601
 123.9000        543
 124.0000        548
 124.1000        529
 124.2000        527
 124.3000        507
 124.4000        479
 124.5000        475
 124.6000        488
 124.7000        471
 124.8000        458
 124.9000        492
 125.0000        461
 125.1000        460
 125.2000        480
 125.3000        458
 125.4000        447
 125.5000        474
 125.6000        422
 125.7000        501
 125.8000        425
 125.9000        439
 126.0000        436
 126.1000        453
 126.2000        457
 126.3000        480
 126.4000        469
 126.5000        444
 126.6000        411
 126.7000        451
 126.8000        416
 126.9000        420
 127.0000        451
 127.1000        422
 127.2000        470
 127.3000        451
 127.4000        476
 127.5000        456
 127.6000        434
 127.7000        498
 127.8000        446
 127.9000        481
 128.0000        475
 128.1000        463
 128.2000        464
 128.3000        462
 128.4000        469
 128.5000        466
 128.6000        433
 128.7000        451
 128.8000        433
 128.9000        425
 129.0000        455
 129.1000        469
 129.2000        466
 129.3000        468
 129.4000        474
 129.5000        435
 129.6000        416
 129.7000        448
 129.8000        478
 129.9000        434
 130.0000        500