File: exp_dat/old/exp_2013_11_11/10pct_30L.uxd
; (content of file C:\DIFFDAT1\GIFT\MDL\Seawoong Lee\20131104_MV8\equal_area_maxkhi080_n8_2th40_130_x25y00_30L.raw)
_FILEVERSION = 3
_SAMPLE =
_+SAMPLE =
_SITE = Korea
_USER = Admin
_GONIOMETER_CODE = 20
; Goniometer : D8 theta/2theta, stage : Unknown
_SAMPLE_CHANGER_CODE = 0
_ATTACHMENTS_CODE = 0
_GONIOMETER_RADIUS = 300
_FIXED_DIVSLIT = 1
_FIXED_SAMPLESLIT = 0
_SOLLER_SLITS = 2
_FIXED_DETSLIT = 0.1
_MONOCHROMATOR = 0
; Incident beam monochromator : None
_SOLLER_SLITS_2 = 2
_THIN_FILM = N
_BETA_FILTER = Y
_FIXED_ANTISLIT = 0.6
_ANALYZER_CODE = 0
; Received beam analyzer : None
_DATEMEASURED = "06-Nov-2013 16:11:57"
_WL_UNIT = A
_WL1 = 1.78897
_WL2 = 1.79285
_WL3 = 1.62079
_WLRATIO = 0.5
_ANODE = Co
_V4_INF_CREATOR = XRDWizard
_V4_INF_CREATOR_VERSION = V2.9.0.22
_V4_INF_WIZARD_VERSION = V2.9.0.22
_V4_INF_WIZARD_ADDINS = V2.9.0.22
_V4_INF_WIZARD_DOCTYPE = XRD
_V4_INF_OSUSER = Postech
_V4_INF_USER = Admin
_V4_INF_SITE = Korea

; Data for range 1
_DRIVE = COUPLED
_STEPTIME = 0.2
_STEPSIZE = 0.1
_STEPMODE = C
_START = 40
_THETA = 20
_2THETA = 40
_KHI = 0
_PHI = 0
_X = 25
_Y = 0
_Z = 0
_DETECTOR = 1
; Detector type : Scintillation counter
_HV = 687
_GAIN = 80
_LLD = 0.69
_ULD = 1.866
_DETECTORSLIT = unkn
_AUX1 = 0
_AUX2 = 0
_AUX3 = 0
_TIMESTARTED = 28
_TEMP_RATE = -1
_TEMP_DELAY = -1
_KV = 35
_MA = 40
_RANGE_WL = 1.78897
_3DPLANE = 0
_V4_ADDITIONALDETECTOR = 0
_V4_D8_DIBNUM = 1
_V4_DETECTORNAME = "Detector 1"
_V4_TTLDETECTOR = None
_V4_DETECTORTYPE = 1
_V4_DETECTORFLAGS = 524545
_V4_DETECTORHV = 687
_V4_DETECTORGAIN = 80
_V4_DETECTORLLD1 = 0.69
_V4_DETECTORWW1 = 1.176
_V4_DETECTORLLD2 = 0
_V4_DETECTORWW2 = 0
_V4_DETECTORPS = 0
_V4_DETECTORDT = 0
_V4_DETECTORPILEUPTIME = 0
_V4_COUNTERS_MASK = 1
_V4_DRIVES_MASK = 0
_V4_ENCODERS_MASK = 0
_2THETACOUNTS = 1
; 2THETA  Cnt1_D1
  40.0000        354
  40.1000        349
  40.2000        412
  40.3000        359
  40.4000        392
  40.5000        387
  40.6000        391
  40.7000        400
  40.8000        383
  40.9000        380
  41.0000        380
  41.1000        354
  41.2000        404
  41.3000        381
  41.4000        386
  41.5000        363
  41.6000        331
  41.7000        393
  41.8000        401
  41.9000        365
  42.0000        410
  42.1000        391
  42.2000        353
  42.3000        403
  42.4000        370
  42.5000        377
  42.6000        363
  42.7000        374
  42.8000        384
  42.9000        375
  43.0000        392
  43.1000        404
  43.2000        381
  43.3000        393
  43.4000        360
  43.5000        391
  43.6000        395
  43.7000        429
  43.8000        408
  43.9000        400
  44.0000        366
  44.1000        452
  44.2000        380
  44.3000        450
  44.4000        417
  44.5000        400
  44.6000        416
  44.7000        396
  44.8000        415
  44.9000        397
  45.0000        364
  45.1000        377
  45.2000        379
  45.3000        377
  45.4000        402
  45.5000        387
  45.6000        400
  45.7000        388
  45.8000        391
  45.9000        396
  46.0000        428
  46.1000        417
  46.2000        412
  46.3000        419
  46.4000        383
  46.5000        407
  46.6000        378
  46.7000        381
  46.8000        368
  46.9000        409
  47.0000        441
  47.1000        391
  47.2000        439
  47.3000        396
  47.4000        407
  47.5000        412
  47.6000        369
  47.7000        423
  47.8000        386
  47.9000        394
  48.0000        423
  48.1000        414
  48.2000        384
  48.3000        390
  48.4000        404
  48.5000        391
  48.6000        382
  48.7000        439
  48.8000        369
  48.9000        392
  49.0000        399
  49.1000        408
  49.2000        439
  49.3000        368
  49.4000        413
  49.5000        434
  49.6000        380
  49.7000        403
  49.8000        445
  49.9000        415
  50.0000        415
  50.1000        389
  50.2000        406
  50.3000        417
  50.4000        446
  50.5000        470
  50.6000        463
  50.7000        482
  50.8000        523
  50.9000        548
  51.0000        474
  51.1000        498
  51.2000        499
  51.3000        527
  51.4000        467
  51.5000        485
  51.6000        590
  51.7000        720
  51.8000        898
  51.9000       1142
  52.0000       1243
  52.1000       1396
  52.2000       1347
  52.3000       1358
  52.4000       1357
  52.5000       1232
  52.6000       1000
  52.7000        713
  52.8000        539
  52.9000        470
  53.0000        448
  53.1000        443
  53.2000        395
  53.3000        436
  53.4000        458
  53.5000        433
  53.6000        454
  53.7000        458
  53.8000        429
  53.9000        441
  54.0000        469
  54.1000        463
  54.2000        421
  54.3000        419
  54.4000        446
  54.5000        447
  54.6000        453
  54.7000        468
  54.8000        461
  54.9000        441
  55.0000        451
  55.1000        425
  55.2000        422
  55.3000        462
  55.4000        451
  55.5000        454
  55.6000        467
  55.7000        490
  55.8000        437
  55.9000        458
  56.0000        459
  56.1000        467
  56.2000        476
  56.3000        490
  56.4000        440
  56.5000        419
  56.6000        467
  56.7000        427
  56.8000        386
  56.9000        425
  57.0000        431
  57.1000        411
  57.2000        464
  57.3000        433
  57.4000        419
  57.5000        462
  57.6000        473
  57.7000        485
  57.8000        420
  57.9000        473
  58.0000        441
  58.1000        429
  58.2000        456
  58.3000        418
  58.4000        471
  58.5000        473
  58.6000        503
  58.7000        442
  58.8000        453
  58.9000        441
  59.0000        504
  59.1000        480
  59.2000        462
  59.3000        482
  59.4000        470
  59.5000        531
  59.6000        489
  59.7000        529
  59.8000        455
  59.9000        498
  60.0000        459
  60.1000        460
  60.2000        442
  60.3000        447
  60.4000        467
  60.5000        455
  60.6000        440
  60.7000        470
  60.8000        468
  60.9000        446
  61.0000        495
  61.1000        439
  61.2000        450
  61.3000        479
  61.4000        477
  61.5000        474
  61.6000        463
  61.7000        431
  61.8000        462
  61.9000        411
  62.0000        454
  62.1000        476
  62.2000        423
  62.3000        443
  62.4000        420
  62.5000        489
  62.6000        476
  62.7000        452
  62.8000        449
  62.9000        435
  63.0000        504
  63.1000        450
  63.2000        472
  63.3000        459
  63.4000        464
  63.5000        483
  63.6000        483
  63.7000        471
  63.8000        453
  63.9000        493
  64.0000        447
  64.1000        517
  64.2000        476
  64.3000        493
  64.4000        440
  64.5000        470
  64.6000        502
  64.7000        488
  64.8000        485
  64.9000        513
  65.0000        494
  65.1000        511
  65.2000        483
  65.3000        467
  65.4000        430
  65.5000        444
  65.6000        498
  65.7000        446
  65.8000        477
  65.9000        463
  66.0000        452
  66.1000        471
  66.2000        464
  66.3000        451
  66.4000        478
  66.5000        471
  66.6000        444
  66.7000        476
  66.8000        459
  66.9000        465
  67.0000        437
  67.1000        491
  67.2000        466
  67.3000        448
  67.4000        457
  67.5000        495
  67.6000        438
  67.7000        491
  67.8000        520
  67.9000        428
  68.0000        462
  68.1000        441
  68.2000        456
  68.3000        503
  68.4000        445
  68.5000        487
  68.6000        460
  68.7000        467
  68.8000        451
  68.9000        519
  69.0000        488
  69.1000        479
  69.2000        473
  69.3000        454
  69.4000        462
  69.5000        448
  69.6000        472
  69.7000        512
  69.8000        458
  69.9000        504
  70.0000        464
  70.1000        467
  70.2000        505
  70.3000        496
  70.4000        446
  70.5000        476
  70.6000        470
  70.7000        469
  70.8000        505
  70.9000        471
  71.0000        443
  71.1000        470
  71.2000        442
  71.3000        480
  71.4000        499
  71.5000        488
  71.6000        467
  71.7000        468
  71.8000        487
  71.9000        459
  72.0000        526
  72.1000        481
  72.2000        476
  72.3000        465
  72.4000        439
  72.5000        484
  72.6000        505
  72.7000        502
  72.8000        437
  72.9000        525
  73.0000        465
  73.1000        512
  73.2000        480
  73.3000        497
  73.4000        472
  73.5000        446
  73.6000        477
  73.7000        482
  73.8000        505
  73.9000        442
  74.0000        469
  74.1000        501
  74.2000        479
  74.3000        487
  74.4000        512
  74.5000        485
  74.6000        512
  74.7000        494
  74.8000        482
  74.9000        490
  75.0000        474
  75.1000        513
  75.2000        508
  75.3000        511
  75.4000        495
  75.5000        459
  75.6000        472
  75.7000        491
  75.8000        464
  75.9000        488
  76.0000        468
  76.1000        510
  76.2000        545
  76.3000        567
  76.4000        626
  76.5000        711
  76.6000        739
  76.7000        797
  76.8000        893
  76.9000        919
  77.0000        860
  77.1000        923
  77.2000        840
  77.3000        838
  77.4000        769
  77.5000        646
  77.6000        601
  77.7000        572
  77.8000        540
  77.9000        491
  78.0000        506
  78.1000        527
  78.2000        468
  78.3000        477
  78.4000        494
  78.5000        489
  78.6000        493
  78.7000        497
  78.8000        478
  78.9000        481
  79.0000        498
  79.1000        481
  79.2000        471
  79.3000        516
  79.4000        509
  79.5000        497
  79.6000        443
  79.7000        463
  79.8000        516
  79.9000        491
  80.0000        482
  80.1000        443
  80.2000        475
  80.3000        465
  80.4000        483
  80.5000        500
  80.6000        511
  80.7000        519
  80.8000        473
  80.9000        520
  81.0000        504
  81.1000        475
  81.2000        465
  81.3000        466
  81.4000        461
  81.5000        519
  81.6000        444
  81.7000        465
  81.8000        482
  81.9000        523
  82.0000        536
  82.1000        465
  82.2000        494
  82.3000        492
  82.4000        546
  82.5000        480
  82.6000        513
  82.7000        521
  82.8000        478
  82.9000        497
  83.0000        476
  83.1000        470
  83.2000        478
  83.3000        508
  83.4000        488
  83.5000        510
  83.6000        513
  83.7000        478
  83.8000        516
  83.9000        473
  84.0000        497
  84.1000        460
  84.2000        491
  84.3000        528
  84.4000        510
  84.5000        520
  84.6000        507
  84.7000        498
  84.8000        519
  84.9000        473
  85.0000        471
  85.1000        553
  85.2000        533
  85.3000        479
  85.4000        519
  85.5000        476
  85.6000        462
  85.7000        534
  85.8000        484
  85.9000        501
  86.0000        474
  86.1000        506
  86.2000        458
  86.3000        501
  86.4000        521
  86.5000        502
  86.6000        519
  86.7000        490
  86.8000        557
  86.9000        525
  87.0000        502
  87.1000        515
  87.2000        481
  87.3000        526
  87.4000        506
  87.5000        469
  87.6000        513
  87.7000        481
  87.8000        545
  87.9000        540
  88.0000        481
  88.1000        493
  88.2000        509
  88.3000        477
  88.4000        543
  88.5000        529
  88.6000        560
  88.7000        558
  88.8000        570
  88.9000        600
  89.0000        650
  89.1000        705
  89.2000        688
  89.3000        730
  89.4000        663
  89.5000        722
  89.6000        649
  89.7000        649
  89.8000        577
  89.9000        607
  90.0000        526
  90.1000        538
  90.2000        566
  90.3000        560
  90.4000        489
  90.5000        514
  90.6000        496
  90.7000        516
  90.8000        506
  90.9000        519
  91.0000        514
  91.1000        512
  91.2000        516
  91.3000        523
  91.4000        513
  91.5000        509
  91.6000        526
  91.7000        496
  91.8000        481
  91.9000        531
  92.0000        520
  92.1000        502
  92.2000        524
  92.3000        497
  92.4000        539
  92.5000        464
  92.6000        479
  92.7000        543
  92.8000        490
  92.9000        508
  93.0000        490
  93.1000        522
  93.2000        483
  93.3000        486
  93.4000        527
  93.5000        507
  93.6000        529
  93.7000        489
  93.8000        510
  93.9000        538
  94.0000        529
  94.1000        515
  94.2000        485
  94.3000        470
  94.4000        503
  94.5000        529
  94.6000        530
  94.7000        487
  94.8000        458
  94.9000        517
  95.0000        505
  95.1000        523
  95.2000        512
  95.3000        513
  95.4000        526
  95.5000        503
  95.6000        525
  95.7000        489
  95.8000        498
  95.9000        487
  96.0000        512
  96.1000        505
  96.2000        525
  96.3000        559
  96.4000        513
  96.5000        546
  96.6000        553
  96.7000        538
  96.8000        527
  96.9000        531
  97.0000        490
  97.1000        522
  97.2000        483
  97.3000        496
  97.4000        496
  97.5000        543
  97.6000        550
  97.7000        502
  97.8000        481
  97.9000        489
  98.0000        507
  98.1000        501
  98.2000        532
  98.3000        538
  98.4000        540
  98.5000        576
  98.6000        618
  98.7000        752
  98.8000        786
  98.9000       1009
  99.0000       1047
  99.1000       1227
  99.2000       1347
  99.3000       1436
  99.4000       1434
  99.5000       1458
  99.6000       1297
  99.7000       1183
  99.8000        987
  99.9000        828
 100.0000        731
 100.1000        624
 100.2000        605
 100.3000        518
 100.4000        545
 100.5000        514
 100.6000        529
 100.7000        531
 100.8000        516
 100.9000        547
 101.0000        512
 101.1000        540
 101.2000        507
 101.3000        508
 101.4000        509
 101.5000        498
 101.6000        527
 101.7000        507
 101.8000        489
 101.9000        527
 102.0000        511
 102.1000        518
 102.2000        553
 102.3000        521
 102.4000        503
 102.5000        525
 102.6000        492
 102.7000        508
 102.8000        489
 102.9000        524
 103.0000        543
 103.1000        498
 103.2000        543
 103.3000        490
 103.4000        506
 103.5000        512
 103.6000        525
 103.7000        503
 103.8000        492
 103.9000        517
 104.0000        480
 104.1000        479
 104.2000        530
 104.3000        499
 104.4000        549
 104.5000        510
 104.6000        550
 104.7000        481
 104.8000        508
 104.9000        502
 105.0000        508
 105.1000        517
 105.2000        517
 105.3000        490
 105.4000        486
 105.5000        499
 105.6000        515
 105.7000        492
 105.8000        464
 105.9000        506
 106.0000        521
 106.1000        503
 106.2000        542
 106.3000        519
 106.4000        485
 106.5000        504
 106.6000        517
 106.7000        497
 106.8000        513
 106.9000        495
 107.0000        514
 107.1000        481
 107.2000        527
 107.3000        485
 107.4000        524
 107.5000        506
 107.6000        489
 107.7000        500
 107.8000        511
 107.9000        503
 108.0000        562
 108.1000        498
 108.2000        524
 108.3000        515
 108.4000        492
 108.5000        526
 108.6000        525
 108.7000        483
 108.8000        499
 108.9000        519
 109.0000        518
 109.1000        471
 109.2000        488
 109.3000        533
 109.4000        498
 109.5000        482
 109.6000        537
 109.7000        518
 109.8000        512
 109.9000        529
 110.0000        516
 110.1000        539
 110.2000        538
 110.3000        509
 110.4000        545
 110.5000        552
 110.6000        549
 110.7000        541
 110.8000        568
 110.9000        609
 111.0000        604
 111.1000        583
 111.2000        607
 111.3000        614
 111.4000        533
 111.5000        580
 111.6000        561
 111.7000        513
 111.8000        483
 111.9000        532
 112.0000        492
 112.1000        458
 112.2000        484
 112.3000        533
 112.4000        531
 112.5000        533
 112.6000        507
 112.7000        491
 112.8000        536
 112.9000        482
 113.0000        567
 113.1000        488
 113.2000        509
 113.3000        498
 113.4000        497
 113.5000        540
 113.6000        486
 113.7000        532
 113.8000        494
 113.9000        516
 114.0000        505
 114.1000        505
 114.2000        496
 114.3000        516
 114.4000        520
 114.5000        524
 114.6000        491
 114.7000        522
 114.8000        490
 114.9000        506
 115.0000        532
 115.1000        478
 115.2000        480
 115.3000        518
 115.4000        505
 115.5000        546
 115.6000        527
 115.7000        481
 115.8000        484
 115.9000        506
 116.0000        499
 116.1000        532
 116.2000        549
 116.3000        543
 116.4000        503
 116.5000        532
 116.6000        536
 116.7000        470
 116.8000        536
 116.9000        522
 117.0000        495
 117.1000        538
 117.2000        497
 117.3000        529
 117.4000        504
 117.5000        465
 117.6000        481
 117.7000        470
 117.8000        503
 117.9000        494
 118.0000        483
 118.1000        512
 118.2000        491
 118.3000        529
 118.4000        523
 118.5000        537
 118.6000        523
 118.7000        528
 118.8000        520
 118.9000        519
 119.0000        504
 119.1000        492
 119.2000        510
 119.3000        550
 119.4000        491
 119.5000        515
 119.6000        489
 119.7000        535
 119.8000        513
 119.9000        526
 120.0000        471
 120.1000        512
 120.2000        537
 120.3000        498
 120.4000        545
 120.5000        513
 120.6000        548
 120.7000        512
 120.8000        499
 120.9000        491
 121.0000        502
 121.1000        524
 121.2000        526
 121.3000        500
 121.4000        491
 121.5000        533
 121.6000        514
 121.7000        534
 121.8000        514
 121.9000        546
 122.0000        496
 122.1000        502
 122.2000        501
 122.3000        480
 122.4000        558
 122.5000        523
 122.6000        493
 122.7000        498
 122.8000        529
 122.9000        598
 123.0000        588
 123.1000        594
 123.2000        579
 123.3000        615
 123.4000        661
 123.5000        640
 123.6000        605
 123.7000        583
 123.8000        602
 123.9000        623
 124.0000        576
 124.1000        525
 124.2000        522
 124.3000        511
 124.4000        545
 124.5000        521
 124.6000        539
 124.7000        468
 124.8000        469
 124.9000        467
 125.0000        477
 125.1000        502
 125.2000        502
 125.3000        479
 125.4000        516
 125.5000        603
 125.6000        519
 125.7000        474
 125.8000        489
 125.9000        545
 126.0000        523
 126.1000        502
 126.2000        469
 126.3000        501
 126.4000        476
 126.5000        545
 126.6000        482
 126.7000        536
 126.8000        542
 126.9000        540
 127.0000        520
 127.1000        532
 127.2000        497
 127.3000        500
 127.4000        502
 127.5000        453
 127.6000        466
 127.7000        526
 127.8000        488
 127.9000        488
 128.0000        513
 128.1000        494
 128.2000        529
 128.3000        480
 128.4000        513
 128.5000        495
 128.6000        510
 128.7000        526
 128.8000        491
 128.9000        487
 129.0000        487
 129.1000        514
 129.2000        479
 129.3000        524
 129.4000        495
 129.5000        520
 129.6000        543
 129.7000        514
 129.8000        489
 129.9000        513
 130.0000        560

; Data for range 2
_DRIVE = COUPLED
_STEPTIME = 0.2
_STEPSIZE = 0.1
_STEPMODE = C
_START = 40
_THETA = 20
_2THETA = 40
_KHI = 10.5
_PHI = 60
_X = 25
_Y = 0
_Z = 0
_DETECTOR = 1
; Detector type : Scintillation counter
_HV = 687
_GAIN = 80
_LLD = 0.69
_ULD = 1.866
_DETECTORSLIT = unkn
_AUX1 = 0
_AUX2 = 0
_AUX3 = 0
_TIMESTARTED = 226
_TEMP_RATE = -1
_TEMP_DELAY = -1
_KV = 35
_MA = 40
_RANGE_WL = 1.78897
_3DPLANE = 0
_V4_ADDITIONALDETECTOR = 0
_V4_D8_DIBNUM = 1
_V4_DETECTORNAME = "Detector 1"
_V4_TTLDETECTOR = None
_V4_DETECTORTYPE = 1
_V4_DETECTORFLAGS = 524545
_V4_DETECTORHV = 687
_V4_DETECTORGAIN = 80
_V4_DETECTORLLD1 = 0.69
_V4_DETECTORWW1 = 1.176
_V4_DETECTORLLD2 = 0
_V4_DETECTORWW2 = 0
_V4_DETECTORPS = 0
_V4_DETECTORDT = 0
_V4_DETECTORPILEUPTIME = 0
_V4_COUNTERS_MASK = 1
_V4_DRIVES_MASK = 0
_V4_ENCODERS_MASK = 0
_2THETACOUNTS = 1
; 2THETA  Cnt1_D1
  40.0000        534
  40.1000        502
  40.2000        519
  40.3000        566
  40.4000        558
  40.5000        542
  40.6000        532
  40.7000        534
  40.8000        554
  40.9000        529
  41.0000        560
  41.1000        534
  41.2000        537
  41.3000        505
  41.4000        564
  41.5000        553
  41.6000        500
  41.7000        512
  41.8000        516
  41.9000        578
  42.0000        524
  42.1000        527
  42.2000        550
  42.3000        554
  42.4000        495
  42.5000        538
  42.6000        538
  42.7000        551
  42.8000        548
  42.9000        536
  43.0000        554
  43.1000        500
  43.2000        536
  43.3000        560
  43.4000        548
  43.5000        515
  43.6000        493
  43.7000        483
  43.8000        548
  43.9000        536
  44.0000        534
  44.1000        535
  44.2000        505
  44.3000        541
  44.4000        506
  44.5000        533
  44.6000        499
  44.7000        521
  44.8000        542
  44.9000        513
  45.0000        531
  45.1000        551
  45.2000        553
  45.3000        530
  45.4000        510
  45.5000        527
  45.6000        568
  45.7000        579
  45.8000        515
  45.9000        510
  46.0000        541
  46.1000        500
  46.2000        516
  46.3000        529
  46.4000        564
  46.5000        535
  46.6000        549
  46.7000        537
  46.8000        552
  46.9000        560
  47.0000        528
  47.1000        536
  47.2000        536
  47.3000        505
  47.4000        561
  47.5000        556
  47.6000        515
  47.7000        529
  47.8000        549
  47.9000        513
  48.0000        498
  48.1000        500
  48.2000        488
  48.3000        522
  48.4000        509
  48.5000        543
  48.6000        482
  48.7000        575
  48.8000        534
  48.9000        508
  49.0000        553
  49.1000        533
  49.2000        509
  49.3000        489
  49.4000        562
  49.5000        547
  49.6000        532
  49.7000        530
  49.8000        501
  49.9000        524
  50.0000        529
  50.1000        556
  50.2000        539
  50.3000        587
  50.4000        588
  50.5000        650
  50.6000        594
  50.7000        698
  50.8000        679
  50.9000        655
  51.0000        644
  51.1000        647
  51.2000        634
  51.3000        615
  51.4000        595
  51.5000        650
  51.6000        784
  51.7000        923
  51.8000       1028
  51.9000       1174
  52.0000       1252
  52.1000       1331
  52.2000       1343
  52.3000       1420
  52.4000       1296
  52.5000       1174
  52.6000        907
  52.7000        731
  52.8000        557
  52.9000        556
  53.0000        570
  53.1000        512
  53.2000        534
  53.3000        553
  53.4000        508
  53.5000        541
  53.6000        556
  53.7000        540
  53.8000        502
  53.9000        545
  54.0000        554
  54.1000        526
  54.2000        533
  54.3000        559
  54.4000        569
  54.5000        558
  54.6000        464
  54.7000        539
  54.8000        534
  54.9000        504
  55.0000        566
  55.1000        502
  55.2000        515
  55.3000        503
  55.4000        534
  55.5000        503
  55.6000        509
  55.7000        534
  55.8000        545
  55.9000        509
  56.0000        509
  56.1000        539
  56.2000        556
  56.3000        536
  56.4000        515
  56.5000        522
  56.6000        545
  56.7000        598
  56.8000        548
  56.9000        521
  57.0000        539
  57.1000        528
  57.2000        493
  57.3000        488
  57.4000        515
  57.5000        527
  57.6000        518
  57.7000        519
  57.8000        512
  57.9000        546
  58.0000        533
  58.1000        522
  58.2000        537
  58.3000        509
  58.4000        526
  58.5000        539
  58.6000        481
  58.7000        561
  58.8000        477
  58.9000        579
  59.0000        560
  59.1000        536
  59.2000        565
  59.3000        599
  59.4000        574
  59.5000        611
  59.6000        578
  59.7000        623
  59.8000        596
  59.9000        590
  60.0000        538
  60.1000        523
  60.2000        539
  60.3000        537
  60.4000        543
  60.5000        515
  60.6000        528
  60.7000        550
  60.8000        500
  60.9000        518
  61.0000        548
  61.1000        539
  61.2000        481
  61.3000        530
  61.4000        497
  61.5000        507
  61.6000        520
  61.7000        534
  61.8000        516
  61.9000        516
  62.0000        532
  62.1000        555
  62.2000        525
  62.3000        494
  62.4000        477
  62.5000        512
  62.6000        472
  62.7000        485
  62.8000        549
  62.9000        510
  63.0000        505
  63.1000        509
  63.2000        520
  63.3000        494
  63.4000        539
  63.5000        534
  63.6000        532
  63.7000        497
  63.8000        494
  63.9000        524
  64.0000        517
  64.1000        523
  64.2000        487
  64.3000        520
  64.4000        529
  64.5000        532
  64.6000        535
  64.7000        491
  64.8000        532
  64.9000        546
  65.0000        531
  65.1000        533
  65.2000        498
  65.3000        493
  65.4000        534
  65.5000        518
  65.6000        489
  65.7000        516
  65.8000        508
  65.9000        473
  66.0000        525
  66.1000        510
  66.2000        494
  66.3000        524
  66.4000        515
  66.5000        494
  66.6000        521
  66.7000        512
  66.8000        503
  66.9000        493
  67.0000        511
  67.1000        547
  67.2000        551
  67.3000        484
  67.4000        489
  67.5000        503
  67.6000        506
  67.7000        522
  67.8000        493
  67.9000        520
  68.0000        501
  68.1000        481
  68.2000        529
  68.3000        506
  68.4000        519
  68.5000        546
  68.6000        500
  68.7000        540
  68.8000        511
  68.9000        466
  69.0000        528
  69.1000        443
  69.2000        540
  69.3000        490
  69.4000        480
  69.5000        506
  69.6000        503
  69.7000        542
  69.8000        545
  69.9000        526
  70.0000        510
  70.1000        539
  70.2000        539
  70.3000        536
  70.4000        538
  70.5000        547
  70.6000        537
  70.7000        501
  70.8000        518
  70.9000        511
  71.0000        540
  71.1000        528
  71.2000        503
  71.3000        480
  71.4000        513
  71.5000        539
  71.6000        495
  71.7000        541
  71.8000        594
  71.9000        509
  72.0000        506
  72.1000        537
  72.2000        502
  72.3000        514
  72.4000        530
  72.5000        510
  72.6000        516
  72.7000        493
  72.8000        515
  72.9000        502
  73.0000        509
  73.1000        492
  73.2000        502
  73.3000        524
  73.4000        458
  73.5000        490
  73.6000        522
  73.7000        500
  73.8000        532
  73.9000        524
  74.0000        499
  74.1000        507
  74.2000        514
  74.3000        469
  74.4000        543
  74.5000        468
  74.6000        552
  74.7000        530
  74.8000        516
  74.9000        503
  75.0000        517
  75.1000        488
  75.2000        504
  75.3000        541
  75.4000        465
  75.5000        508
  75.6000        521
  75.7000        496
  75.8000        471
  75.9000        501
  76.0000        500
  76.1000        527
  76.2000        541
  76.3000        550
  76.4000        601
  76.5000        611
  76.6000        723
  76.7000        748
  76.8000        795
  76.9000        807
  77.0000        771
  77.1000        821
  77.2000        808
  77.3000        706
  77.4000        663
  77.5000        585
  77.6000        535
  77.7000        538
  77.8000        550
  77.9000        505
  78.0000        506
  78.1000        508
  78.2000        468
  78.3000        499
  78.4000        522
  78.5000        515
  78.6000        525
  78.7000        520
  78.8000        501
  78.9000        537
  79.0000        515
  79.1000        542
  79.2000        486
  79.3000        520
  79.4000        482
  79.5000        517
  79.6000        530
  79.7000        515
  79.8000        481
  79.9000        497
  80.0000        520
  80.1000        487
  80.2000        507
  80.3000        548
  80.4000        527
  80.5000        537
  80.6000        530
  80.7000        544
  80.8000        486
  80.9000        488
  81.0000        516
  81.1000        502
  81.2000        500
  81.3000        493
  81.4000        495
  81.5000        466
  81.6000        513
  81.7000        499
  81.8000        490
  81.9000        564
  82.0000        544
  82.1000        531
  82.2000        547
  82.3000        577
  82.4000        470
  82.5000        491
  82.6000        502
  82.7000        538
  82.8000        535
  82.9000        506
  83.0000        490
  83.1000        512
  83.2000        513
  83.3000        466
  83.4000        493
  83.5000        509
  83.6000        479
  83.7000        496
  83.8000        515
  83.9000        501
  84.0000        530
  84.1000        518
  84.2000        510
  84.3000        484
  84.4000        517
  84.5000        565
  84.6000        515
  84.7000        508
  84.8000        532
  84.9000        478
  85.0000        510
  85.1000        509
  85.2000        499
  85.3000        494
  85.4000        487
  85.5000        540
  85.6000        528
  85.7000        555
  85.8000        509
  85.9000        500
  86.0000        486
  86.1000        529
  86.2000        542
  86.3000        535
  86.4000        492
  86.5000        504
  86.6000        486
  86.7000        489
  86.8000        525
  86.9000        557
  87.0000        514
  87.1000        473
  87.2000        502
  87.3000        507
  87.4000        517
  87.5000        554
  87.6000        512
  87.7000        559
  87.8000        537
  87.9000        540
  88.0000        556
  88.1000        544
  88.2000        508
  88.3000        522
  88.4000        537
  88.5000        503
  88.6000        538
  88.7000        562
  88.8000        578
  88.9000        610
  89.0000        603
  89.1000        637
  89.2000        659
  89.3000        650
  89.4000        625
  89.5000        626
  89.6000        597
  89.7000        584
  89.8000        610
  89.9000        521
  90.0000        492
  90.1000        503
  90.2000        503
  90.3000        572
  90.4000        469
  90.5000        495
  90.6000        503
  90.7000        536
  90.8000        533
  90.9000        498
  91.0000        514
  91.1000        509
  91.2000        545
  91.3000        522
  91.4000        512
  91.5000        536
  91.6000        503
  91.7000        513
  91.8000        545
  91.9000        528
  92.0000        472
  92.1000        541
  92.2000        533
  92.3000        510
  92.4000        511
  92.5000        533
  92.6000        534
  92.7000        503
  92.8000        524
  92.9000        467
  93.0000        502
  93.1000        507
  93.2000        509
  93.3000        496
  93.4000        520
  93.5000        544
  93.6000        507
  93.7000        476
  93.8000        465
  93.9000        493
  94.0000        517
  94.1000        521
  94.2000        510
  94.3000        508
  94.4000        513
  94.5000        526
  94.6000        506
  94.7000        521
  94.8000        500
  94.9000        513
  95.0000        491
  95.1000        469
  95.2000        520
  95.3000        546
  95.4000        503
  95.5000        488
  95.6000        515
  95.7000        548
  95.8000        475
  95.9000        539
  96.0000        508
  96.1000        516
  96.2000        488
  96.3000        526
  96.4000        554
  96.5000        497
  96.6000        504
  96.7000        557
  96.8000        545
  96.9000        490
  97.0000        532
  97.1000        555
  97.2000        530
  97.3000        508
  97.4000        494
  97.5000        529
  97.6000        496
  97.7000        550
  97.8000        522
  97.9000        528
  98.0000        533
  98.1000        527
  98.2000        502
  98.3000        536
  98.4000        529
  98.5000        550
  98.6000        554
  98.7000        619
  98.8000        721
  98.9000        815
  99.0000        903
  99.1000        975
  99.2000       1071
  99.3000       1087
  99.4000       1125
  99.5000       1155
  99.6000       1044
  99.7000        990
  99.8000        858
  99.9000        786
 100.0000        678
 100.1000        586
 100.2000        523
 100.3000        539
 100.4000        496
 100.5000        552
 100.6000        522
 100.7000        482
 100.8000        500
 100.9000        499
 101.0000        521
 101.1000        515
 101.2000        479
 101.3000        523
 101.4000        523
 101.5000        500
 101.6000        559
 101.7000        529
 101.8000        508
 101.9000        517
 102.0000        505
 102.1000        517
 102.2000        533
 102.3000        486
 102.4000        487
 102.5000        559
 102.6000        524
 102.7000        516
 102.8000        499
 102.9000        537
 103.0000        482
 103.1000        475
 103.2000        585
 103.3000        532
 103.4000        494
 103.5000        525
 103.6000        546
 103.7000        559
 103.8000        544
 103.9000        523
 104.0000        512
 104.1000        514
 104.2000        502
 104.3000        527
 104.4000        545
 104.5000        499
 104.6000        494
 104.7000        502
 104.8000        509
 104.9000        482
 105.0000        501
 105.1000        494
 105.2000        526
 105.3000        544
 105.4000        512
 105.5000        490
 105.6000        525
 105.7000        551
 105.8000        519
 105.9000        540
 106.0000        502
 106.1000        501
 106.2000        503
 106.3000        504
 106.4000        493
 106.5000        510
 106.6000        491
 106.7000        524
 106.8000        490
 106.9000        521
 107.0000        508
 107.1000        502
 107.2000        497
 107.3000        511
 107.4000        501
 107.5000        480
 107.6000        504
 107.7000        510
 107.8000        521
 107.9000        534
 108.0000        475
 108.1000        481
 108.2000        480
 108.3000        492
 108.4000        477
 108.5000        538
 108.6000        531
 108.7000        568
 108.8000        532
 108.9000        481
 109.0000        521
 109.1000        532
 109.2000        555
 109.3000        540
 109.4000        492
 109.5000        467
 109.6000        516
 109.7000        496
 109.8000        516
 109.9000        544
 110.0000        521
 110.1000        546
 110.2000        517
 110.3000        546
 110.4000        588
 110.5000        543
 110.6000        605
 110.7000        604
 110.8000        618
 110.9000        607
 111.0000        579
 111.1000        668
 111.2000        625
 111.3000        553
 111.4000        573
 111.5000        586
 111.6000        549
 111.7000        523
 111.8000        518
 111.9000        523
 112.0000        500
 112.1000        495
 112.2000        501
 112.3000        460
 112.4000        501
 112.5000        510
 112.6000        507
 112.7000        519
 112.8000        500
 112.9000        494
 113.0000        523
 113.1000        502
 113.2000        518
 113.3000        512
 113.4000        497
 113.5000        486
 113.6000        512
 113.7000        486
 113.8000        541
 113.9000        535
 114.0000        516
 114.1000        480
 114.2000        483
 114.3000        520
 114.4000        495
 114.5000        517
 114.6000        543
 114.7000        523
 114.8000        517
 114.9000        521
 115.0000        459
 115.1000        511
 115.2000        544
 115.3000        508
 115.4000        520
 115.5000        528
 115.6000        519
 115.7000        530
 115.8000        504
 115.9000        482
 116.0000        508
 116.1000        520
 116.2000        533
 116.3000        520
 116.4000        512
 116.5000        526
 116.6000        495
 116.7000        499
 116.8000        491
 116.9000        507
 117.0000        468
 117.1000        505
 117.2000        530
 117.3000        519
 117.4000        503
 117.5000        482
 117.6000        498
 117.7000        541
 117.8000        509
 117.9000        499
 118.0000        516
 118.1000        538
 118.2000        536
 118.3000        534
 118.4000        515
 118.5000        496
 118.6000        526
 118.7000        487
 118.8000        519
 118.9000        533
 119.0000        513
 119.1000        500
 119.2000        522
 119.3000        540
 119.4000        486
 119.5000        519
 119.6000        517
 119.7000        546
 119.8000        497
 119.9000        489
 120.0000        524
 120.1000        526
 120.2000        500
 120.3000        482
 120.4000        491
 120.5000        472
 120.6000        517
 120.7000        504
 120.8000        547
 120.9000        519
 121.0000        516
 121.1000        525
 121.2000        531
 121.3000        524
 121.4000        528
 121.5000        469
 121.6000        523
 121.7000        539
 121.8000        523
 121.9000        547
 122.0000        535
 122.1000        514
 122.2000        524
 122.3000        502
 122.4000        498
 122.5000        526
 122.6000        518
 122.7000        554
 122.8000        581
 122.9000        512
 123.0000        523
 123.1000        548
 123.2000        588
 123.3000        511
 123.4000        523
 123.5000        558
 123.6000        618
 123.7000        608
 123.8000        592
 123.9000        517
 124.0000        557
 124.1000        523
 124.2000        559
 124.3000        535
 124.4000        510
 124.5000        513
 124.6000        505
 124.7000        537
 124.8000        485
 124.9000        478
 125.0000        469
 125.1000        527
 125.2000        509
 125.3000        496
 125.4000        526
 125.5000        513
 125.6000        511
 125.7000        527
 125.8000        531
 125.9000        495
 126.0000        510
 126.1000        504
 126.2000        531
 126.3000        518
 126.4000        519
 126.5000        503
 126.6000        516
 126.7000        483
 126.8000        511
 126.9000        511
 127.0000        526
 127.1000        525
 127.2000        495
 127.3000        497
 127.4000        538
 127.5000        537
 127.6000        495
[...]
 129.1000        435
 129.2000        376
 129.3000        375
 129.4000        405
 129.5000        384
 129.6000        393
 129.7000        369
 129.8000        397
 129.9000        382
 130.0000        368

; Data for range 53
_DRIVE = COUPLED
_STEPTIME = 0.2
_STEPSIZE = 0.1
_STEPMODE = C
_START = 40
_THETA = 20
_2THETA = 40
_KHI = 80
_PHI = 0
_X = 25
_Y = 0
_Z = 0
_DETECTOR = 1
; Detector type : Scintillation counter
_HV = 687
_GAIN = 80
_LLD = 0.69
_ULD = 1.866
_DETECTORSLIT = unkn
_AUX1 = 0
_AUX2 = 0
_AUX3 = 0
_TIMESTARTED = 1.03e+004
_TEMP_RATE = -1
_TEMP_DELAY = -1
_KV = 35
_MA = 40
_RANGE_WL = 1.78897
_3DPLANE = 0
_V4_ADDITIONALDETECTOR = 0
_V4_D8_DIBNUM = 1
_V4_DETECTORNAME = "Detector 1"
_V4_TTLDETECTOR = None
_V4_DETECTORTYPE = 1
_V4_DETECTORFLAGS = 524545
_V4_DETECTORHV = 687
_V4_DETECTORGAIN = 80
_V4_DETECTORLLD1 = 0.69
_V4_DETECTORWW1 = 1.176
_V4_DETECTORLLD2 = 0
_V4_DETECTORWW2 = 0
_V4_DETECTORPS = 0
_V4_DETECTORDT = 0
_V4_DETECTORPILEUPTIME = 0
_V4_COUNTERS_MASK = 1
_V4_DRIVES_MASK = 0
_V4_ENCODERS_MASK = 0
_2THETACOUNTS = 1
; 2THETA  Cnt1_D1
  40.0000        149
  40.1000        146
  40.2000        145
  40.3000        121
  40.4000        140
  40.5000        131
  40.6000        118
  40.7000        153
  40.8000        147
  40.9000        117
  41.0000        109
  41.1000        129
  41.2000        134
  41.3000        152
  41.4000        145
  41.5000        139
  41.6000        139
  41.7000        157
  41.8000        136
  41.9000        127
  42.0000        140
  42.1000        144
  42.2000        129
  42.3000        158
  42.4000        160
  42.5000        170
  42.6000        182
  42.7000        213
  42.8000        201
  42.9000        216
  43.0000        237
  43.1000        239
  43.2000        227
  43.3000        241
  43.4000        259
  43.5000        239
  43.6000        233
  43.7000        228
  43.8000        203
  43.9000        185
  44.0000        184
  44.1000        197
  44.2000        158
  44.3000        154
  44.4000        162
  44.5000        154
  44.6000        158
  44.7000        134
  44.8000        139
  44.9000        138
  45.0000        151
  45.1000        146
  45.2000        149
  45.3000        130
  45.4000        151
  45.5000        136
  45.6000        150
  45.7000        167
  45.8000        148
  45.9000        133
  46.0000        162
  46.1000        155
  46.2000        145
  46.3000        141
  46.4000        155
  46.5000        139
  46.6000        159
  46.7000        119
  46.8000        164
  46.9000        177
  47.0000        145
  47.1000        156
  47.2000        132
  47.3000        137
  47.4000        147
  47.5000        175
  47.6000        135
  47.7000        137
  47.8000        168
  47.9000        153
  48.0000        130
  48.1000        151
  48.2000        122
  48.3000        152
  48.4000        167
  48.5000        153
  48.6000        129
  48.7000        141
  48.8000        144
  48.9000        146
  49.0000        155
  49.1000        173
  49.2000        148
  49.3000        159
  49.4000        165
  49.5000        152
  49.6000        192
  49.7000        172
  49.8000        192
  49.9000        193
  50.0000        185
  50.1000        197
  50.2000        241
  50.3000        233
  50.4000        215
  50.5000        236
  50.6000        232
  50.7000        267
  50.8000        286
  50.9000        297
  51.0000        285
  51.1000        294
  51.2000        307
  51.3000        346
  51.4000        325
  51.5000        322
  51.6000        370
  51.7000        367
  51.8000        392
  51.9000        430
  52.0000        481
  52.1000        553
  52.2000        632
  52.3000        640
  52.4000        666
  52.5000        621
  52.6000        636
  52.7000        573
  52.8000        581
  52.9000        525
  53.0000        444
  53.1000        464
  53.2000        372
  53.3000        285
  53.4000        271
  53.5000        223
  53.6000        201
  53.7000        196
  53.8000        160
  53.9000        154
  54.0000        150
  54.1000        174
  54.2000        167
  54.3000        149
  54.4000        166
  54.5000        166
  54.6000        139
  54.7000        138
  54.8000        155
  54.9000        174
  55.0000        167
  55.1000        173
  55.2000        167
  55.3000        143
  55.4000        170
  55.5000        177
  55.6000        157
  55.7000        150
  55.8000        158
  55.9000        156
  56.0000        163
  56.1000        185
  56.2000        163
  56.3000        162
  56.4000        185
  56.5000        174
  56.6000        166
  56.7000        165
  56.8000        174
  56.9000        170
  57.0000        154
  57.1000        159
  57.2000        175
  57.3000        148
  57.4000        180
  57.5000        186
  57.6000        165
  57.7000        161
  57.8000        166
  57.9000        171
  58.0000        176
  58.1000        163
  58.2000        152
  58.3000        170
  58.4000        161
  58.5000        160
  58.6000        136
  58.7000        209
  58.8000        178
  58.9000        153
  59.0000        185
  59.1000        186
  59.2000        173
  59.3000        177
  59.4000        184
  59.5000        197
  59.6000        191
  59.7000        215
  59.8000        194
  59.9000        186
  60.0000        220
  60.1000        200
  60.2000        201
  60.3000        205
  60.4000        179
  60.5000        185
  60.6000        202
  60.7000        185
  60.8000        163
  60.9000        158
  61.0000        178
  61.1000        166
  61.2000        167
  61.3000        180
  61.4000        177
  61.5000        184
  61.6000        161
  61.7000        179
  61.8000        187
  61.9000        177
  62.0000        158
  62.1000        176
  62.2000        157
  62.3000        171
  62.4000        169
  62.5000        162
  62.6000        149
  62.7000        158
  62.8000        162
  62.9000        156
  63.0000        160
  63.1000        189
  63.2000        161
  63.3000        158
  63.4000        159
  63.5000        182
  63.6000        187
  63.7000        211
  63.8000        163
  63.9000        175
  64.0000        165
  64.1000        185
  64.2000        167
  64.3000        171
  64.4000        164
  64.5000        150
  64.6000        159
  64.7000        174
  64.8000        173
  64.9000        179
  65.0000        158
  65.1000        164
  65.2000        157
  65.3000        173
  65.4000        182
  65.5000        163
  65.6000        154
  65.7000        188
  65.8000        172
  65.9000        177
  66.0000        166
  66.1000        185
  66.2000        182
  66.3000        166
  66.4000        189
  66.5000        158
  66.6000        166
  66.7000        154
  66.8000        153
  66.9000        176
  67.0000        209
  67.1000        181
  67.2000        190
  67.3000        146
  67.4000        169
  67.5000        157
  67.6000        175
  67.7000        191
  67.8000        166
  67.9000        189
  68.0000        192
  68.1000        164
  68.2000        162
  68.3000        189
  68.4000        168
  68.5000        196
  68.6000        185
  68.7000        184
  68.8000        179
  68.9000        187
  69.0000        165
  69.1000        167
  69.2000        185
  69.3000        176
  69.4000        185
  69.5000        203
  69.6000        199
  69.7000        193
  69.8000        163
  69.9000        190
  70.0000        167
  70.1000        167
  70.2000        183
  70.3000        179
  70.4000        191
  70.5000        163
  70.6000        183
  70.7000        199
  70.8000        169
  70.9000        167
  71.0000        181
  71.1000        184
  71.2000        203
  71.3000        194
  71.4000        197
  71.5000        185
  71.6000        175
  71.7000        185
  71.8000        169
  71.9000        200
  72.0000        190
  72.1000        207
  72.2000        199
  72.3000        175
  72.4000        181
  72.5000        160
  72.6000        179
  72.7000        192
  72.8000        206
  72.9000        157
  73.0000        230
  73.1000        191
  73.2000        177
  73.3000        170
  73.4000        172
  73.5000        186
  73.6000        163
  73.7000        197
  73.8000        165
  73.9000        166
  74.0000        188
  74.1000        182
  74.2000        191
  74.3000        182
  74.4000        202
  74.5000        193
  74.6000        185
  74.7000        227
  74.8000        190
  74.9000        192
  75.0000        222
  75.1000        189
  75.2000        162
  75.3000        186
  75.4000        177
  75.5000        187
  75.6000        176
  75.7000        167
  75.8000        195
  75.9000        177
  76.0000        173
  76.1000        166
  76.2000        189
  76.3000        192
  76.4000        203
  76.5000        206
  76.6000        234
  76.7000        232
  76.8000        218
  76.9000        171
  77.0000        226
  77.1000        246
  77.2000        241
  77.3000        255
  77.4000        272
  77.5000        238
  77.6000        243
  77.7000        242
  77.8000        214
  77.9000        242
  78.0000        221
  78.1000        219
  78.2000        185
  78.3000        201
  78.4000        202
  78.5000        193
  78.6000        200
  78.7000        193
  78.8000        176
  78.9000        188
  79.0000        179
  79.1000        211
  79.2000        185
  79.3000        202
  79.4000        207
  79.5000        200
  79.6000        189
  79.7000        210
  79.8000        191
  79.9000        173
  80.0000        208
  80.1000        173
  80.2000        181
  80.3000        188
  80.4000        170
  80.5000        188
  80.6000        172
  80.7000        220
  80.8000        181
  80.9000        213
  81.0000        199
  81.1000        172
  81.2000        178
  81.3000        207
  81.4000        202
  81.5000        193
  81.6000        170
  81.7000        198
  81.8000        225
  81.9000        188
  82.0000        184
  82.1000        194
  82.2000        197
  82.3000        210
  82.4000        195
  82.5000        178
  82.6000        209
  82.7000        208
  82.8000        184
  82.9000        214
  83.0000        199
  83.1000        197
  83.2000        197
  83.3000        217
  83.4000        185
  83.5000        214
  83.6000        192
  83.7000        183
  83.8000        220
  83.9000        178
  84.0000        195
  84.1000        193
  84.2000        178
  84.3000        204
  84.4000        191
  84.5000        181
  84.6000        185
  84.7000        197
  84.8000        203
  84.9000        207
  85.0000        219
  85.1000        204
  85.2000        202
  85.3000        190
  85.4000        183
  85.5000        187
  85.6000        187
  85.7000        218
  85.8000        186
  85.9000        189
  86.0000        200
  86.1000        213
  86.2000        198
  86.3000        178
  86.4000        186
  86.5000        192
  86.6000        171
  86.7000        221
  86.8000        195
  86.9000        211
  87.0000        216
  87.1000        197
  87.2000        217
  87.3000        207
  87.4000        187
  87.5000        214
  87.6000        196
  87.7000        213
  87.8000        190
  87.9000        208
  88.0000        188
  88.1000        212
  88.2000        193
  88.3000        202
  88.4000        204
  88.5000        216
  88.6000        195
  88.7000        211
  88.8000        219
  88.9000        203
  89.0000        210
  89.1000        196
  89.2000        187
  89.3000        192
  89.4000        214
  89.5000        224
  89.6000        199
  89.7000        217
  89.8000        214
  89.9000        208
  90.0000        225
  90.1000        184
  90.2000        211
  90.3000        222
  90.4000        207
  90.5000        209
  90.6000        200
  90.7000        205
  90.8000        194
  90.9000        190
  91.0000        198
  91.1000        227
  91.2000        205
  91.3000        208
  91.4000        194
  91.5000        202
  91.6000        230
  91.7000        220
  91.8000        213
  91.9000        205
  92.0000        196
  92.1000        211
  92.2000        208
  92.3000        206
  92.4000        207
  92.5000        234
  92.6000        216
  92.7000        181
  92.8000        193
  92.9000        224
  93.0000        213
  93.1000        218
  93.2000        199
  93.3000        227
  93.4000        209
  93.5000        189
  93.6000        202
  93.7000        219
  93.8000        225
  93.9000        241
  94.0000        218
  94.1000        206
  94.2000        211
  94.3000        200
  94.4000        205
  94.5000        209
  94.6000        184
  94.7000        254
  94.8000        206
  94.9000        209
  95.0000        241
  95.1000        207
  95.2000        183
  95.3000        217
  95.4000        217
  95.5000        207
  95.6000        216
  95.7000        232
  95.8000        216
  95.9000        222
  96.0000        198
  96.1000        204
  96.2000        208
  96.3000        221
  96.4000        221
  96.5000        220
  96.6000        197
  96.7000        217
  96.8000        237
  96.9000        213
  97.0000        197
  97.1000        232
  97.2000        209
  97.3000        205
  97.4000        215
  97.5000        205
  97.6000        223
  97.7000        237
  97.8000        206
  97.9000        216
  98.0000        236
  98.1000        233
  98.2000        202
  98.3000        228
  98.4000        219
  98.5000        222
  98.6000        239
  98.7000        264
  98.8000        294
  98.9000        273
  99.0000        321
  99.1000        304
  99.2000        294
  99.3000        333
  99.4000        379
  99.5000        372
  99.6000        385
  99.7000        354
  99.8000        377
  99.9000        303
 100.0000        334
 100.1000        321
 100.2000        290
 100.3000        299
 100.4000        286
 100.5000        240
 100.6000        226
 100.7000        240
 100.8000        239
 100.9000        236
 101.0000        208
 101.1000        234
 101.2000        234
 101.3000        233
 101.4000        224
 101.5000        240
 101.6000        210
 101.7000        214
 101.8000        244
 101.9000        205
 102.0000        237
 102.1000        230
 102.2000        225
 102.3000        220
 102.4000        212
 102.5000        225
 102.6000        264
 102.7000        231
 102.8000        236
 102.9000        224
 103.0000        232
 103.1000        239
 103.2000        230
 103.3000        241
 103.4000        227
 103.5000        243
 103.6000        247
 103.7000        211
 103.8000        237
 103.9000        240
 104.0000        272
 104.1000        233
 104.2000        246
 104.3000        220
 104.4000        249
 104.5000        224
 104.6000        241
 104.7000        250
 104.8000        234
 104.9000        246
 105.0000        249
 105.1000        203
 105.2000        242
 105.3000        246
 105.4000        240
 105.5000        228
 105.6000        264
 105.7000        249
 105.8000        224
 105.9000        230
 106.0000        221
 106.1000        220
 106.2000        256
 106.3000        225
 106.4000        253
 106.5000        249
 106.6000        236
 106.7000        255
 106.8000        237
 106.9000        245
 107.0000        252
 107.1000        242
 107.2000        238
 107.3000        253
 107.4000        266
 107.5000        238
 107.6000        236
 107.7000        247
 107.8000        244
 107.9000        231
 108.0000        246
 108.1000        255
 108.2000        236
 108.3000        247
 108.4000        243
 108.5000        244
 108.6000        216
 108.7000        233
 108.8000        248
 108.9000        231
 109.0000        238
 109.1000        273
 109.2000        246
 109.3000        246
 109.4000        215
 109.5000        227
 109.6000        232
 109.7000        280
 109.8000        267
 109.9000        259
 110.0000        277
 110.1000        262
 110.2000        289
 110.3000        261
 110.4000        273
 110.5000        254
 110.6000        303
 110.7000        271
 110.8000        274
 110.9000        304
 111.0000        293
 111.1000        284
 111.2000        288
 111.3000        289
 111.4000        260
 111.5000        279
 111.6000        288
 111.7000        269
 111.8000        257
 111.9000        288
 112.0000        265
 112.1000        269
 112.2000        249
 112.3000        261
 112.4000        277
 112.5000        285
 112.6000        251
 112.7000        259
 112.8000        275
 112.9000        216
 113.0000        278
 113.1000        269
 113.2000        285
 113.3000        260
 113.4000        281
 113.5000        232
 113.6000        245
 113.7000        262
 113.8000        234
 113.9000        274
 114.0000        296
 114.1000        261
 114.2000        263
 114.3000        281
 114.4000        278
 114.5000        281
 114.6000        233
 114.7000        262
 114.8000        278
 114.9000        265
 115.0000        288
 115.1000        280
 115.2000        285
 115.3000        260
 115.4000        251
 115.5000        264
 115.6000        247
 115.7000        246
 115.8000        268
 115.9000        277
 116.0000        273
 116.1000        276
 116.2000        284
 116.3000        263
 116.4000        267
 116.5000        269
 116.6000        269
 116.7000        269
 116.8000        270
 116.9000        278
 117.0000        273
 117.1000        244
 117.2000        288
 117.3000        288
 117.4000        260
 117.5000        284
 117.6000        255
 117.7000        271
 117.8000        313
 117.9000        279
 118.0000        292
 118.1000        290
 118.2000        280
 118.3000        304
 118.4000        321
 118.5000        295
 118.6000        270
 118.7000        312
 118.8000        328
 118.9000        330
 119.0000        322
 119.1000        324
 119.2000        307
 119.3000        313
 119.4000        274
 119.5000        292
 119.6000        304
 119.7000        266
 119.8000        315
 119.9000        256
 120.0000        297
 120.1000        314
 120.2000        331
 120.3000        278
 120.4000        299
 120.5000        294
 120.6000        271
 120.7000        275
 120.8000        319
 120.9000        288
 121.0000        282
 121.1000        296
 121.2000        294
 121.3000        304
 121.4000        306
 121.5000        285
 121.6000        333
 121.7000        296
 121.8000        303
 121.9000        292
 122.0000        265
 122.1000        288
 122.2000        309
 122.3000        297
 122.4000        294
 122.5000        326
 122.6000        335
 122.7000        367
 122.8000        366
 122.9000        367
 123.0000        377
 123.1000        407
 123.2000        385
 123.3000        432
 123.4000        386
 123.5000        412
 123.6000        406
 123.7000        403
 123.8000        393
 123.9000        411
 124.0000        390
 124.1000        401
 124.2000        388
 124.3000        365
 124.4000        358
 124.5000        327
 124.6000        284
 124.7000        319
 124.8000        296
 124.9000        300
 125.0000        277
 125.1000        317
 125.2000        269
 125.3000        281
 125.4000        293
 125.5000        303
 125.6000        323
 125.7000        269
 125.8000        309
 125.9000        325
 126.0000        323
 126.1000        318
 126.2000        278
 126.3000        308
 126.4000        326
 126.5000        304
 126.6000        291
 126.7000        310
 126.8000        298
 126.9000        340
 127.0000        320
 127.1000        318
 127.2000        288
 127.3000        311
 127.4000        294
 127.5000        291
 127.6000        330
 127.7000        293
 127.8000        313
 127.9000        322
 128.0000        297
 128.1000        331
 128.2000        292
 128.3000        304
 128.4000        286
 128.5000        319
 128.6000        283
 128.7000        315
 128.8000        308
 128.9000        343
 129.0000        303
 129.1000        322
 129.2000        326
 129.3000        348
 129.4000        297
 129.5000        328
 129.6000        302
 129.7000        342
 129.8000        303
 129.9000        306
 130.0000        304