File: exp_dat/old/exp_2013_11_11/11pct_30G.uxd
; (content of file C:\DIFFDAT1\GIFT\MDL\Seawoong Lee\20131104_MV8\equal_area_maxkhi080_n8_2th40_130_x00y-25_30g.raw)
_FILEVERSION = 3
_SAMPLE =
_+SAMPLE =
_SITE = Korea
_USER = Admin
_GONIOMETER_CODE = 20
; Goniometer : D8 theta/2theta, stage : Unknown
_SAMPLE_CHANGER_CODE = 0
_ATTACHMENTS_CODE = 0
_GONIOMETER_RADIUS = 300
_FIXED_DIVSLIT = 1
_FIXED_SAMPLESLIT = 0
_SOLLER_SLITS = 2
_FIXED_DETSLIT = 0.1
_MONOCHROMATOR = 0
; Incident beam monochromator : None
_SOLLER_SLITS_2 = 2
_THIN_FILM = N
_BETA_FILTER = Y
_FIXED_ANTISLIT = 0.6
_ANALYZER_CODE = 0
; Received beam analyzer : None
_DATEMEASURED = "08-Nov-2013 21:37:44"
_WL_UNIT = A
_WL1 = 1.78897
_WL2 = 1.79285
_WL3 = 1.62079
_WLRATIO = 0.5
_ANODE = Co
_V4_INF_CREATOR = XRDWizard
_V4_INF_CREATOR_VERSION = V2.9.0.22
_V4_INF_WIZARD_VERSION = V2.9.0.22
_V4_INF_WIZARD_ADDINS = V2.9.0.22
_V4_INF_WIZARD_DOCTYPE = XRD
_V4_INF_OSUSER = Postech
_V4_INF_USER = Admin
_V4_INF_SITE = Korea

; Data for range 1
_DRIVE = COUPLED
_STEPTIME = 0.2
_STEPSIZE = 0.1
_STEPMODE = C
_START = 40
_THETA = 20
_2THETA = 40
_KHI = 0
_PHI = 0
_X = 0
_Y = -25
_Z = 0
_DETECTOR = 1
; Detector type : Scintillation counter
_HV = 687
_GAIN = 80
_LLD = 0.69
_ULD = 1.866
_DETECTORSLIT = unkn
_AUX1 = 0
_AUX2 = 0
_AUX3 = 0
_TIMESTARTED = 28
_TEMP_RATE = -1
_TEMP_DELAY = -1
_KV = 35
_MA = 40
_RANGE_WL = 1.78897
_3DPLANE = 0
_V4_ADDITIONALDETECTOR = 0
_V4_D8_DIBNUM = 1
_V4_DETECTORNAME = "Detector 1"
_V4_TTLDETECTOR = None
_V4_DETECTORTYPE = 1
_V4_DETECTORFLAGS = 524545
_V4_DETECTORHV = 687
_V4_DETECTORGAIN = 80
_V4_DETECTORLLD1 = 0.69
_V4_DETECTORWW1 = 1.176
_V4_DETECTORLLD2 = 0
_V4_DETECTORWW2 = 0
_V4_DETECTORPS = 0
_V4_DETECTORDT = 0
_V4_DETECTORPILEUPTIME = 0
_V4_COUNTERS_MASK = 1
_V4_DRIVES_MASK = 0
_V4_ENCODERS_MASK = 0
_2THETACOUNTS = 1
; 2THETA  Cnt1_D1
  40.0000        449
  40.1000        467
  40.2000        457
  40.3000        468
  40.4000        481
  40.5000        466
  40.6000        487
  40.7000        450
  40.8000        452
  40.9000        455
  41.0000        538
  41.1000        480
  41.2000        512
  41.3000        484
  41.4000        510
  41.5000        503
  41.6000        469
  41.7000        504
  41.8000        495
  41.9000        510
  42.0000        451
  42.1000        481
  42.2000        477
  42.3000        469
  42.4000        466
  42.5000        513
  42.6000        471
  42.7000        463
  42.8000        505
  42.9000        454
  43.0000        490
  43.1000        488
  43.2000        456
  43.3000        456
  43.4000        474
  43.5000        482
  43.6000        479
  43.7000        495
  43.8000        493
  43.9000        495
  44.0000        499
  44.1000        535
  44.2000        476
  44.3000        505
  44.4000        517
  44.5000        492
  44.6000        505
  44.7000        523
  44.8000        455
  44.9000        504
  45.0000        483
  45.1000        511
  45.2000        453
  45.3000        473
  45.4000        491
  45.5000        492
  45.6000        513
  45.7000        509
  45.8000        491
  45.9000        464
  46.0000        498
  46.1000        500
  46.2000        488
  46.3000        465
  46.4000        461
  46.5000        491
  46.6000        499
  46.7000        514
  46.8000        528
  46.9000        499
  47.0000        528
  47.1000        533
  47.2000        523
  47.3000        490
  47.4000        536
  47.5000        492
  47.6000        518
  47.7000        529
  47.8000        501
  47.9000        538
  48.0000        455
  48.1000        494
  48.2000        493
  48.3000        513
  48.4000        512
  48.5000        497
  48.6000        528
  48.7000        473
  48.8000        485
  48.9000        506
  49.0000        495
  49.1000        479
  49.2000        520
  49.3000        455
  49.4000        516
  49.5000        509
  49.6000        502
  49.7000        535
  49.8000        505
  49.9000        494
  50.0000        496
  50.1000        499
  50.2000        501
  50.3000        516
  50.4000        525
  50.5000        549
  50.6000        531
  50.7000        523
  50.8000        503
  50.9000        508
  51.0000        515
  51.1000        516
  51.2000        558
  51.3000        586
  51.4000        549
  51.5000        564
  51.6000        711
  51.7000        899
  51.8000        890
  51.9000       1057
  52.0000       1118
  52.1000       1149
  52.2000       1154
  52.3000       1164
  52.4000       1131
  52.5000       1014
  52.6000        906
  52.7000        733
  52.8000        632
  52.9000        546
  53.0000        558
  53.1000        500
  53.2000        533
  53.3000        474
  53.4000        526
  53.5000        507
  53.6000        480
  53.7000        524
  53.8000        549
  53.9000        538
  54.0000        538
  54.1000        510
  54.2000        457
  54.3000        488
  54.4000        426
  54.5000        497
  54.6000        527
  54.7000        535
  54.8000        534
  54.9000        500
  55.0000        477
  55.1000        510
  55.2000        507
  55.3000        495
  55.4000        543
  55.5000        480
  55.6000        535
  55.7000        516
  55.8000        471
  55.9000        534
  56.0000        514
  56.1000        530
  56.2000        509
  56.3000        548
  56.4000        508
  56.5000        488
  56.6000        515
  56.7000        498
  56.8000        551
  56.9000        515
  57.0000        554
  57.1000        520
  57.2000        500
  57.3000        562
  57.4000        509
  57.5000        524
  57.6000        473
  57.7000        510
  57.8000        487
  57.9000        520
  58.0000        496
  58.1000        505
  58.2000        539
  58.3000        518
  58.4000        522
  58.5000        526
  58.6000        501
  58.7000        498
  58.8000        556
  58.9000        521
  59.0000        465
  59.1000        540
  59.2000        539
  59.3000        534
  59.4000        476
  59.5000        489
  59.6000        527
  59.7000        536
  59.8000        512
  59.9000        525
  60.0000        498
  60.1000        486
  60.2000        532
  60.3000        506
  60.4000        512
  60.5000        539
  60.6000        546
  60.7000        502
  60.8000        546
  60.9000        499
  61.0000        522
  61.1000        504
  61.2000        528
  61.3000        552
  61.4000        502
  61.5000        525
  61.6000        529
  61.7000        518
  61.8000        497
  61.9000        501
  62.0000        507
  62.1000        529
  62.2000        496
  62.3000        573
  62.4000        484
  62.5000        505
  62.6000        496
  62.7000        506
  62.8000        539
  62.9000        487
  63.0000        515
  63.1000        498
  63.2000        522
  63.3000        447
  63.4000        528
  63.5000        508
  63.6000        493
  63.7000        484
  63.8000        499
  63.9000        506
  64.0000        508
  64.1000        539
  64.2000        507
  64.3000        504
  64.4000        477
  64.5000        496
  64.6000        484
  64.7000        500
  64.8000        504
  64.9000        583
  65.0000        539
  65.1000        524
  65.2000        531
  65.3000        514
  65.4000        504
  65.5000        513
  65.6000        538
  65.7000        527
  65.8000        522
  65.9000        549
  66.0000        513
  66.1000        495
  66.2000        526
  66.3000        500
  66.4000        523
  66.5000        494
  66.6000        528
  66.7000        517
  66.8000        509
  66.9000        506
  67.0000        501
  67.1000        495
  67.2000        497
  67.3000        538
  67.4000        507
  67.5000        516
  67.6000        473
  67.7000        471
  67.8000        502
  67.9000        550
  68.0000        490
  68.1000        523
  68.2000        506
  68.3000        495
  68.4000        523
  68.5000        500
  68.6000        516
  68.7000        504
  68.8000        492
  68.9000        527
  69.0000        521
  69.1000        519
  69.2000        539
  69.3000        477
  69.4000        519
  69.5000        520
  69.6000        512
  69.7000        549
  69.8000        538
  69.9000        480
  70.0000        488
  70.1000        491
  70.2000        531
  70.3000        534
  70.4000        505
  70.5000        521
  70.6000        483
  70.7000        539
  70.8000        514
  70.9000        512
  71.0000        491
  71.1000        512
  71.2000        510
  71.3000        508
  71.4000        528
  71.5000        503
  71.6000        523
  71.7000        521
  71.8000        516
  71.9000        501
  72.0000        520
  72.1000        492
  72.2000        466
  72.3000        435
  72.4000        503
  72.5000        482
  72.6000        540
  72.7000        523
  72.8000        499
  72.9000        482
  73.0000        500
  73.1000        505
  73.2000        474
  73.3000        514
  73.4000        505
  73.5000        506
  73.6000        494
  73.7000        521
  73.8000        504
  73.9000        520
  74.0000        456
  74.1000        525
  74.2000        501
  74.3000        467
  74.4000        507
  74.5000        501
  74.6000        516
  74.7000        512
  74.8000        469
  74.9000        510
  75.0000        504
  75.1000        514
  75.2000        532
  75.3000        535
  75.4000        540
  75.5000        529
  75.6000        543
  75.7000        581
  75.8000        585
  75.9000        618
  76.0000        624
  76.1000        734
  76.2000        842
  76.3000        886
  76.4000       1012
  76.5000       1105
  76.6000       1166
  76.7000       1191
  76.8000       1230
  76.9000       1246
  77.0000       1088
  77.1000       1107
  77.2000        964
  77.3000        867
  77.4000        854
  77.5000        711
  77.6000        645
  77.7000        575
  77.8000        582
  77.9000        565
  78.0000        526
  78.1000        547
  78.2000        573
  78.3000        562
  78.4000        503
  78.5000        489
  78.6000        532
  78.7000        517
  78.8000        515
  78.9000        508
  79.0000        564
  79.1000        532
  79.2000        562
  79.3000        509
  79.4000        511
  79.5000        518
  79.6000        529
  79.7000        507
  79.8000        509
  79.9000        527
  80.0000        525
  80.1000        454
  80.2000        470
  80.3000        542
  80.4000        528
  80.5000        567
  80.6000        534
  80.7000        529
  80.8000        507
  80.9000        455
  81.0000        512
  81.1000        480
  81.2000        503
  81.3000        513
  81.4000        509
  81.5000        466
  81.6000        521
  81.7000        522
  81.8000        497
  81.9000        535
  82.0000        531
  82.1000        513
  82.2000        480
  82.3000        520
  82.4000        508
  82.5000        489
  82.6000        540
  82.7000        537
  82.8000        508
  82.9000        480
  83.0000        477
  83.1000        548
  83.2000        499
  83.3000        486
  83.4000        493
  83.5000        568
  83.6000        512
  83.7000        503
  83.8000        512
  83.9000        533
  84.0000        484
  84.1000        494
  84.2000        516
  84.3000        508
  84.4000        497
  84.5000        489
  84.6000        517
  84.7000        494
  84.8000        522
  84.9000        520
  85.0000        505
  85.1000        502
  85.2000        515
  85.3000        527
  85.4000        562
  85.5000        518
  85.6000        489
  85.7000        500
  85.8000        497
  85.9000        493
  86.0000        479
  86.1000        548
  86.2000        452
  86.3000        519
  86.4000        514
  86.5000        472
  86.6000        522
  86.7000        522
  86.8000        498
  86.9000        541
  87.0000        467
  87.1000        506
  87.2000        488
  87.3000        538
  87.4000        511
  87.5000        501
  87.6000        534
  87.7000        527
  87.8000        500
  87.9000        546
  88.0000        526
  88.1000        526
  88.2000        562
  88.3000        505
  88.4000        499
  88.5000        516
  88.6000        491
  88.7000        502
  88.8000        525
  88.9000        515
  89.0000        503
  89.1000        501
  89.2000        551
  89.3000        544
  89.4000        496
  89.5000        540
  89.6000        531
  89.7000        538
  89.8000        532
  89.9000        518
  90.0000        560
  90.1000        546
  90.2000        520
  90.3000        568
  90.4000        483
  90.5000        509
  90.6000        526
  90.7000        495
  90.8000        554
  90.9000        498
  91.0000        490
  91.1000        507
  91.2000        490
  91.3000        497
  91.4000        524
  91.5000        502
  91.6000        513
  91.7000        503
  91.8000        516
  91.9000        496
  92.0000        496
  92.1000        493
  92.2000        497
  92.3000        512
  92.4000        520
  92.5000        531
  92.6000        522
  92.7000        530
  92.8000        490
  92.9000        502
  93.0000        435
  93.1000        518
  93.2000        522
  93.3000        506
  93.4000        449
  93.5000        514
  93.6000        478
  93.7000        520
  93.8000        474
  93.9000        478
  94.0000        483
  94.1000        524
  94.2000        540
  94.3000        518
  94.4000        539
  94.5000        499
  94.6000        498
  94.7000        489
  94.8000        505
  94.9000        471
  95.0000        546
  95.1000        510
  95.2000        540
  95.3000        516
  95.4000        500
  95.5000        501
  95.6000        526
  95.7000        497
  95.8000        501
  95.9000        529
  96.0000        478
  96.1000        554
  96.2000        503
  96.3000        512
  96.4000        502
  96.5000        487
  96.6000        493
  96.7000        513
  96.8000        517
  96.9000        503
  97.0000        536
  97.1000        521
  97.2000        484
  97.3000        502
  97.4000        518
  97.5000        538
  97.6000        557
  97.7000        513
  97.8000        518
  97.9000        549
  98.0000        555
  98.1000        563
  98.2000        624
  98.3000        632
  98.4000        679
  98.5000        759
  98.6000        900
  98.7000       1002
  98.8000       1166
  98.9000       1358
  99.0000       1438
  99.1000       1542
  99.2000       1577
  99.3000       1576
  99.4000       1569
  99.5000       1465
  99.6000       1221
  99.7000       1217
  99.8000       1014
  99.9000        966
 100.0000        831
 100.1000        636
 100.2000        686
 100.3000        631
 100.4000        635
 100.5000        599
 100.6000        560
 100.7000        582
 100.8000        556
 100.9000        583
 101.0000        510
 101.1000        504
 101.2000        519
 101.3000        532
 101.4000        507
 101.5000        528
 101.6000        555
 101.7000        525
 101.8000        545
 101.9000        498
 102.0000        517
 102.1000        483
 102.2000        520
 102.3000        487
 102.4000        520
 102.5000        513
 102.6000        488
 102.7000        497
 102.8000        507
 102.9000        535
 103.0000        483
 103.1000        486
 103.2000        539
 103.3000        534
 103.4000        509
 103.5000        539
 103.6000        497
 103.7000        533
 103.8000        503
 103.9000        472
 104.0000        527
 104.1000        540
 104.2000        486
 104.3000        487
 104.4000        476
 104.5000        524
 104.6000        545
 104.7000        546
 104.8000        509
 104.9000        540
 105.0000        492
 105.1000        534
 105.2000        521
 105.3000        500
 105.4000        526
 105.5000        510
 105.6000        477
 105.7000        527
 105.8000        541
 105.9000        526
 106.0000        500
 106.1000        487
 106.2000        486
 106.3000        504
 106.4000        529
 106.5000        466
 106.6000        537
 106.7000        533
 106.8000        511
 106.9000        501
 107.0000        496
 107.1000        519
 107.2000        508
 107.3000        496
 107.4000        515
 107.5000        521
 107.6000        504
 107.7000        505
 107.8000        538
 107.9000        531
 108.0000        517
 108.1000        555
 108.2000        524
 108.3000        516
 108.4000        485
 108.5000        530
 108.6000        504
 108.7000        467
 108.8000        462
 108.9000        525
 109.0000        525
 109.1000        516
 109.2000        569
 109.3000        546
 109.4000        473
 109.5000        473
 109.6000        531
 109.7000        485
 109.8000        485
 109.9000        499
 110.0000        466
 110.1000        487
 110.2000        538
 110.3000        472
 110.4000        500
 110.5000        544
 110.6000        483
 110.7000        538
 110.8000        514
 110.9000        501
 111.0000        526
 111.1000        525
 111.2000        522
 111.3000        500
 111.4000        521
 111.5000        515
 111.6000        530
 111.7000        536
 111.8000        503
 111.9000        496
 112.0000        509
 112.1000        495
 112.2000        467
 112.3000        508
 112.4000        492
 112.5000        523
 112.6000        498
 112.7000        509
 112.8000        467
 112.9000        500
 113.0000        506
 113.1000        525
 113.2000        529
 113.3000        488
 113.4000        521
 113.5000        516
 113.6000        524
 113.7000        490
 113.8000        569
 113.9000        525
 114.0000        494
 114.1000        535
 114.2000        539
 114.3000        518
 114.4000        519
 114.5000        482
 114.6000        471
 114.7000        530
 114.8000        485
 114.9000        555
 115.0000        537
 115.1000        490
 115.2000        499
 115.3000        505
 115.4000        486
 115.5000        464
 115.6000        540
 115.7000        497
 115.8000        511
 115.9000        521
 116.0000        465
 116.1000        458
 116.2000        479
 116.3000        489
 116.4000        550
 116.5000        514
 116.6000        546
 116.7000        472
 116.8000        511
 116.9000        483
 117.0000        478
 117.1000        501
 117.2000        472
 117.3000        518
 117.4000        507
 117.5000        531
 117.6000        476
 117.7000        501
 117.8000        482
 117.9000        482
 118.0000        496
 118.1000        541
 118.2000        475
 118.3000        575
 118.4000        522
 118.5000        511
 118.6000        476
 118.7000        462
 118.8000        512
 118.9000        489
 119.0000        521
 119.1000        509
 119.2000        506
 119.3000        520
 119.4000        517
 119.5000        528
 119.6000        497
 119.7000        519
 119.8000        496
 119.9000        509
 120.0000        493
 120.1000        523
 120.2000        519
 120.3000        512
 120.4000        502
 120.5000        497
 120.6000        460
 120.7000        505
 120.8000        516
 120.9000        506
 121.0000        527
 121.1000        473
 121.2000        488
 121.3000        522
 121.4000        490
 121.5000        494
 121.6000        522
 121.7000        498
 121.8000        510
 121.9000        494
 122.0000        516
 122.1000        539
 122.2000        522
 122.3000        553
 122.4000        445
 122.5000        526
 122.6000        561
 122.7000        552
 122.8000        530
 122.9000        540
 123.0000        585
 123.1000        595
 123.2000        553
 123.3000        567
 123.4000        576
 123.5000        546
 123.6000        550
 123.7000        524
 123.8000        525
 123.9000        548
 124.0000        532
 124.1000        550
 124.2000        536
 124.3000        561
 124.4000        519
 124.5000        556
 124.6000        534
 124.7000        502
 124.8000        489
 124.9000        540
 125.0000        501
 125.1000        523
 125.2000        486
 125.3000        504
 125.4000        467
 125.5000        455
 125.6000        505
 125.7000        484
 125.8000        530
 125.9000        521
 126.0000        514
 126.1000        503
 126.2000        516
 126.3000        493
 126.4000        511
 126.5000        527
 126.6000        509
 126.7000        487
 126.8000        495
 126.9000        526
 127.0000        481
 127.1000        501
 127.2000        517
 127.3000        481
 127.4000        506
 127.5000        508
 127.6000        452
 127.7000        529
 127.8000        509
 127.9000        520
 128.0000        477
 128.1000        528
 128.2000        512
 128.3000        487
 128.4000        488
 128.5000        530
 128.6000        545
 128.7000        525
 128.8000        491
 128.9000        528
 129.0000        507
 129.1000        519
 129.2000        527
 129.3000        501
 129.4000        503
 129.5000        485
 129.6000        503
 129.7000        477
 129.8000        505
 129.9000        497
 130.0000        555

; Data for range 2
_DRIVE = COUPLED
_STEPTIME = 0.2
_STEPSIZE = 0.1
_STEPMODE = C
_START = 40
_THETA = 20
_2THETA = 40
_KHI = 10.5
_PHI = 60
_X = 0
_Y = -25
_Z = 0
_DETECTOR = 1
; Detector type : Scintillation counter
_HV = 687
_GAIN = 80
_LLD = 0.69
_ULD = 1.866
_DETECTORSLIT = unkn
_AUX1 = 0
_AUX2 = 0
_AUX3 = 0
_TIMESTARTED = 225
_TEMP_RATE = -1
_TEMP_DELAY = -1
_KV = 35
_MA = 40
_RANGE_WL = 1.78897
_3DPLANE = 0
_V4_ADDITIONALDETECTOR = 0
_V4_D8_DIBNUM = 1
_V4_DETECTORNAME = "Detector 1"
_V4_TTLDETECTOR = None
_V4_DETECTORTYPE = 1
_V4_DETECTORFLAGS = 524545
_V4_DETECTORHV = 687
_V4_DETECTORGAIN = 80
_V4_DETECTORLLD1 = 0.69
_V4_DETECTORWW1 = 1.176
_V4_DETECTORLLD2 = 0
_V4_DETECTORWW2 = 0
_V4_DETECTORPS = 0
_V4_DETECTORDT = 0
_V4_DETECTORPILEUPTIME = 0
_V4_COUNTERS_MASK = 1
_V4_DRIVES_MASK = 0
_V4_ENCODERS_MASK = 0
_2THETACOUNTS = 1
; 2THETA  Cnt1_D1
  40.0000        549
  40.1000        537
  40.2000        504
  40.3000        547
  40.4000        523
  40.5000        512
  40.6000        578
  40.7000        585
  40.8000        545
  40.9000        553
  41.0000        506
  41.1000        506
  41.2000        532
  41.3000        508
  41.4000        508
  41.5000        548
  41.6000        509
  41.7000        545
  41.8000        495
  41.9000        513
  42.0000        503
  42.1000        462
  42.2000        515
  42.3000        504
  42.4000        491
  42.5000        518
  42.6000        513
  42.7000        535
  42.8000        539
  42.9000        533
  43.0000        494
  43.1000        523
  43.2000        537
  43.3000        534
  43.4000        517
  43.5000        518
  43.6000        481
  43.7000        526
  43.8000        552
  43.9000        555
  44.0000        504
  44.1000        498
  44.2000        525
  44.3000        524
  44.4000        511
  44.5000        503
  44.6000        525
  44.7000        502
  44.8000        494
  44.9000        537
  45.0000        527
  45.1000        536
  45.2000        497
  45.3000        556
  45.4000        536
  45.5000        502
  45.6000        517
  45.7000        512
  45.8000        583
  45.9000        494
  46.0000        490
  46.1000        534
  46.2000        501
  46.3000        509
  46.4000        516
  46.5000        531
  46.6000        489
  46.7000        511
  46.8000        521
  46.9000        526
  47.0000        489
  47.1000        514
  47.2000        518
  47.3000        501
  47.4000        486
  47.5000        560
  47.6000        514
  47.7000        540
  47.8000        500
  47.9000        511
  48.0000        518
  48.1000        508
  48.2000        524
  48.3000        538
  48.4000        512
  48.5000        530
  48.6000        534
  48.7000        514
  48.8000        458
  48.9000        523
  49.0000        527
  49.1000        469
  49.2000        548
  49.3000        490
  49.4000        511
  49.5000        518
  49.6000        512
  49.7000        480
  49.8000        496
  49.9000        538
  50.0000        507
  50.1000        497
  50.2000        536
  50.3000        476
  50.4000        503
  50.5000        514
  50.6000        493
  50.7000        513
  50.8000        563
  50.9000        590
  51.0000        562
  51.1000        539
  51.2000        545
  51.3000        567
  51.4000        624
  51.5000        713
  51.6000        824
  51.7000       1022
  51.8000       1086
  51.9000       1206
  52.0000       1277
  52.1000       1269
  52.2000       1273
  52.3000       1208
  52.4000       1169
  52.5000       1047
  52.6000        874
  52.7000        757
  52.8000        679
  52.9000        586
  53.0000        588
  53.1000        564
  53.2000        522
  53.3000        534
  53.4000        515
  53.5000        545
  53.6000        522
  53.7000        516
  53.8000        506
  53.9000        520
  54.0000        507
  54.1000        519
  54.2000        540
  54.3000        522
  54.4000        485
  54.5000        526
  54.6000        524
  54.7000        539
  54.8000        532
  54.9000        512
  55.0000        546
  55.1000        529
  55.2000        509
  55.3000        505
  55.4000        482
  55.5000        522
  55.6000        516
  55.7000        494
  55.8000        514
  55.9000        543
  56.0000        522
  56.1000        533
  56.2000        554
  56.3000        559
  56.4000        516
  56.5000        518
  56.6000        509
  56.7000        502
  56.8000        515
  56.9000        519
  57.0000        488
  57.1000        547
  57.2000        520
  57.3000        535
  57.4000        511
  57.5000        465
  57.6000        489
  57.7000        490
  57.8000        498
  57.9000        493
  58.0000        529
  58.1000        511
  58.2000        549
  58.3000        528
  58.4000        537
  58.5000        528
  58.6000        526
  58.7000        521
  58.8000        523
  58.9000        475
  59.0000        471
  59.1000        515
  59.2000        543
  59.3000        479
  59.4000        507
  59.5000        567
  59.6000        508
  59.7000        487
  59.8000        517
  59.9000        493
  60.0000        496
  60.1000        542
  60.2000        472
  60.3000        546
  60.4000        497
  60.5000        481
  60.6000        497
  60.7000        509
  60.8000        494
  60.9000        518
  61.0000        539
  61.1000        495
  61.2000        532
  61.3000        491
  61.4000        499
  61.5000        490
  61.6000        499
  61.7000        562
  61.8000        474
  61.9000        498
  62.0000        469
  62.1000        500
  62.2000        525
  62.3000        480
  62.4000        494
  62.5000        472
  62.6000        505
  62.7000        501
  62.8000        535
  62.9000        531
  63.0000        500
  63.1000        515
  63.2000        501
  63.3000        509
  63.4000        504
  63.5000        534
  63.6000        470
  63.7000        490
  63.8000        449
  63.9000        444
  64.0000        521
  64.1000        540
  64.2000        537
  64.3000        505
  64.4000        481
  64.5000        506
  64.6000        508
  64.7000        502
  64.8000        490
  64.9000        520
  65.0000        512
  65.1000        527
  65.2000        517
  65.3000        522
  65.4000        517
  65.5000        491
  65.6000        486
  65.7000        467
  65.8000        508
  65.9000        503
  66.0000        547
  66.1000        509
  66.2000        543
  66.3000        540
  66.4000        489
  66.5000        503
  66.6000        504
  66.7000        508
  66.8000        526
  66.9000        520
  67.0000        478
  67.1000        469
  67.2000        511
  67.3000        492
  67.4000        546
  67.5000        534
  67.6000        494
  67.7000        481
  67.8000        482
  67.9000        534
  68.0000        480
  68.1000        523
  68.2000        485
  68.3000        529
  68.4000        497
  68.5000        501
  68.6000        505
  68.7000        536
  68.8000        495
  68.9000        546
  69.0000        527
  69.1000        527
  69.2000        513
  69.3000        498
  69.4000        537
  69.5000        519
  69.6000        475
  69.7000        522
  69.8000        495
  69.9000        532
  70.0000        465
  70.1000        472
  70.2000        478
  70.3000        465
  70.4000        512
  70.5000        519
  70.6000        528
  70.7000        519
  70.8000        489
  70.9000        504
  71.0000        538
  71.1000        532
  71.2000        543
  71.3000        484
  71.4000        517
  71.5000        517
  71.6000        517
  71.7000        516
  71.8000        526
  71.9000        528
  72.0000        520
  72.1000        480
  72.2000        494
  72.3000        505
  72.4000        509
  72.5000        519
  72.6000        496
  72.7000        505
  72.8000        524
  72.9000        515
  73.0000        463
  73.1000        501
  73.2000        496
  73.3000        503
  73.4000        502
  73.5000        513
  73.6000        501
  73.7000        499
  73.8000        501
  73.9000        510
  74.0000        502
  74.1000        504
  74.2000        485
  74.3000        515
  74.4000        495
  74.5000        488
  74.6000        507
  74.7000        504
  74.8000        497
  74.9000        509
  75.0000        480
  75.1000        570
  75.2000        530
  75.3000        494
  75.4000        533
  75.5000        519
  75.6000        533
  75.7000        524
  75.8000        514
  75.9000        525
  76.0000        574
  76.1000        589
  76.2000        661
  76.3000        648
  76.4000        720
  76.5000        754
  76.6000        730
  76.7000        778
  76.8000        781
  76.9000        750
  77.0000        761
  77.1000        754
  77.2000        642
  77.3000        650
  77.4000        629
  77.5000        545
  77.6000        563
  77.7000        542
  77.8000        537
  77.9000        503
  78.0000        535
  78.1000        499
  78.2000        534
  78.3000        506
  78.4000        510
  78.5000        515
  78.6000        494
  78.7000        513
  78.8000        491
  78.9000        491
  79.0000        506
  79.1000        491
  79.2000        517
  79.3000        464
  79.4000        524
  79.5000        495
  79.6000        506
  79.7000        499
  79.8000        507
  79.9000        515
  80.0000        527
  80.1000        528
  80.2000        521
  80.3000        532
  80.4000        516
  80.5000        487
  80.6000        515
  80.7000        512
  80.8000        492
  80.9000        493
  81.0000        510
  81.1000        524
  81.2000        518
  81.3000        537
  81.4000        482
  81.5000        491
  81.6000        467
  81.7000        537
  81.8000        507
  81.9000        493
  82.0000        505
  82.1000        488
  82.2000        517
  82.3000        509
  82.4000        528
  82.5000        487
  82.6000        493
  82.7000        498
  82.8000        521
  82.9000        484
  83.0000        520
  83.1000        485
  83.2000        468
  83.3000        499
  83.4000        530
  83.5000        489
  83.6000        461
  83.7000        524
  83.8000        500
  83.9000        507
  84.0000        519
  84.1000        482
  84.2000        506
  84.3000        478
  84.4000        517
  84.5000        490
  84.6000        522
  84.7000        568
  84.8000        490
  84.9000        518
  85.0000        504
  85.1000        540
  85.2000        495
  85.3000        535
  85.4000        514
  85.5000        498
  85.6000        503
  85.7000        530
  85.8000        529
  85.9000        494
  86.0000        526
  86.1000        546
  86.2000        489
  86.3000        515
  86.4000        456
  86.5000        542
  86.6000        532
  86.7000        507
  86.8000        475
  86.9000        524
  87.0000        527
  87.1000        520
  87.2000        479
  87.3000        494
  87.4000        513
  87.5000        511
  87.6000        465
  87.7000        530
  87.8000        507
  87.9000        476
  88.0000        495
  88.1000        477
  88.2000        481
  88.3000        526
  88.4000        498
  88.5000        513
  88.6000        513
  88.7000        510
  88.8000        500
  88.9000        524
  89.0000        525
  89.1000        499
  89.2000        549
  89.3000        506
  89.4000        503
  89.5000        501
  89.6000        468
  89.7000        507
  89.8000        499
  89.9000        506
  90.0000        521
  90.1000        526
  90.2000        511
  90.3000        560
  90.4000        491
  90.5000        496
  90.6000        500
  90.7000        458
  90.8000        500
  90.9000        487
  91.0000        495
  91.1000        494
  91.2000        545
  91.3000        502
  91.4000        500
  91.5000        504
  91.6000        517
  91.7000        505
  91.8000        521
  91.9000        534
  92.0000        475
  92.1000        530
  92.2000        471
  92.3000        505
  92.4000        494
  92.5000        499
  92.6000        472
  92.7000        523
  92.8000        511
  92.9000        483
  93.0000        479
  93.1000        528
  93.2000        503
  93.3000        500
  93.4000        524
  93.5000        469
  93.6000        470
  93.7000        479
  93.8000        538
  93.9000        534
  94.0000        521
  94.1000        487
  94.2000        504
  94.3000        506
  94.4000        463
  94.5000        481
  94.6000        479
  94.7000        504
  94.8000        495
  94.9000        523
  95.0000        506
  95.1000        500
  95.2000        505
  95.3000        509
  95.4000        458
  95.5000        520
  95.6000        502
  95.7000        508
  95.8000        529
  95.9000        477
  96.0000        514
  96.1000        516
  96.2000        512
  96.3000        500
  96.4000        512
  96.5000        551
  96.6000        465
  96.7000        469
  96.8000        455
  96.9000        500
  97.0000        547
  97.1000        523
  97.2000        511
  97.3000        507
  97.4000        548
  97.5000        485
  97.6000        483
  97.7000        515
  97.8000        512
  97.9000        511
  98.0000        540
  98.1000        537
  98.2000        513
  98.3000        597
  98.4000        595
  98.5000        644
  98.6000        664
  98.7000        720
  98.8000        814
  98.9000        848
  99.0000        946
  99.1000       1001
  99.2000       1071
  99.3000       1031
  99.4000       1056
  99.5000       1026
  99.6000        985
  99.7000        853
  99.8000        781
  99.9000        741
 100.0000        662
 100.1000        655
 100.2000        611
 100.3000        545
 100.4000        551
 100.5000        545
 100.6000        582
 100.7000        532
 100.8000        531
 100.9000        529
 101.0000        531
 101.1000        553
 101.2000        503
 101.3000        501
 101.4000        522
 101.5000        508
 101.6000        536
 101.7000        533
 101.8000        538
 101.9000        506
 102.0000        535
 102.1000        499
 102.2000        475
 102.3000        553
 102.4000        484
 102.5000        492
 102.6000        533
 102.7000        492
 102.8000        540
 102.9000        520
 103.0000        506
 103.1000        548
 103.2000        486
 103.3000        515
 103.4000        515
 103.5000        564
 103.6000        518
 103.7000        488
 103.8000        477
 103.9000        515
 104.0000        509
 104.1000        507
 104.2000        493
 104.3000        497
 104.4000        541
 104.5000        513
 104.6000        492
 104.7000        536
 104.8000        507
 104.9000        489
 105.0000        505
 105.1000        482
 105.2000        509
 105.3000        512
 105.4000        536
 105.5000        493
 105.6000        490
 105.7000        484
 105.8000        532
 105.9000        505
 106.0000        528
 106.1000        533
 106.2000        501
 106.3000        552
 106.4000        498
 106.5000        481
 106.6000        481
 106.7000        483
 106.8000        500
 106.9000        509
 107.0000        489
 107.1000        488
 107.2000        506
 107.3000        499
 107.4000        481
 107.5000        480
 107.6000        480
 107.7000        550
 107.8000        523
 107.9000        502
 108.0000        527
 108.1000        511
 108.2000        463
 108.3000        480
 108.4000        516
 108.5000        502
 108.6000        502
 108.7000        528
 108.8000        518
 108.9000        503
 109.0000        490
 109.1000        471
 109.2000        494
 109.3000        498
 109.4000        499
 109.5000        523
 109.6000        481
 109.7000        528
 109.8000        521
 109.9000        500
 110.0000        538
 110.1000        548
 110.2000        493
 110.3000        526
 110.4000        488
 110.5000        498
 110.6000        455
 110.7000        467
 110.8000        522
 110.9000        514
 111.0000        501
 111.1000        536
 111.2000        520
 111.3000        460
 111.4000        541
 111.5000        469
 111.6000        493
 111.7000        531
 111.8000        504
 111.9000        510
 112.0000        478
 112.1000        503
 112.2000        472
 112.3000        482
 112.4000        543
 112.5000        482
 112.6000        526
 112.7000        457
 112.8000        528
 112.9000        475
 113.0000        520
 113.1000        513
 113.2000        517
 113.3000        466
 113.4000        482
 113.5000        488
 113.6000        470
 113.7000        499
 113.8000        502
 113.9000        488
 114.0000        482
 114.1000        556
 114.2000        511
 114.3000        489
 114.4000        465
 114.5000        489
 114.6000        505
 114.7000        486
 114.8000        492
 114.9000        502
 115.0000        475
 115.1000        495
 115.2000        518
 115.3000        472
 115.4000        536
 115.5000        508
 115.6000        528
 115.7000        538
 115.8000        523
 115.9000        489
 116.0000        500
 116.1000        498
 116.2000        535
 116.3000        488
 116.4000        523
 116.5000        470
 116.6000        515
 116.7000        533
 116.8000        506
 116.9000        495
 117.0000        525
 117.1000        480
 117.2000        512
 117.3000        508
 117.4000        490
 117.5000        535
 117.6000        546
 117.7000        483
 117.8000        487
 117.9000        556
 118.0000        485
 118.1000        483
 118.2000        516
 118.3000        513
 118.4000        455
 118.5000        501
 118.6000        482
 118.7000        473
 118.8000        479
 118.9000        499
 119.0000        463
 119.1000        472
 119.2000        486
 119.3000        525
 119.4000        501
 119.5000        486
 119.6000        521
 119.7000        521
 119.8000        531
 119.9000        515
 120.0000        495
 120.1000        482
 120.2000        508
 120.3000        479
 120.4000        480
 120.5000        530
 120.6000        508
 120.7000        521
 120.8000        537
 120.9000        528
 121.0000        513
 121.1000        512
 121.2000        479
 121.3000        497
 121.4000        536
 121.5000        528
 121.6000        551
 121.7000        512
 121.8000        491
 121.9000        504
 122.0000        508
 122.1000        483
 122.2000        539
 122.3000        500
 122.4000        538
 122.5000        524
 122.6000        504
 122.7000        548
 122.8000        537
 122.9000        533
 123.0000        547
 123.1000        549
 123.2000        561
 123.3000        585
 123.4000        524
 123.5000        544
 123.6000        546
 123.7000        541
 123.8000        585
 123.9000        544
 124.0000        554
 124.1000        499
 124.2000        524
 124.3000        486
 124.4000        504
 124.5000        487
 124.6000        519
 124.7000        513
 124.8000        526
 124.9000        521
 125.0000        497
 125.1000        531
 125.2000        456
 125.3000        535
 125.4000        481
 125.5000        498
 125.6000        506
 125.7000        516
 125.8000        511
 125.9000        505
 126.0000        551
 126.1000        557
 126.2000        525
 126.3000        522
 126.4000        514
 126.5000        502
 126.6000        555
 126.7000        516
 126.8000        525
 126.9000        479
 127.0000        502
 127.1000        485
 127.2000        522
 127.3000        511
 127.4000        563
 127.5000        516
 127.6000        530
[...]
 129.1000        437
 129.2000        407
 129.3000        415
 129.4000        424
 129.5000        417
 129.6000        416
 129.7000        440
 129.8000        380
 129.9000        384
 130.0000        445

; Data for range 53
_DRIVE = COUPLED
_STEPTIME = 0.2
_STEPSIZE = 0.1
_STEPMODE = C
_START = 40
_THETA = 20
_2THETA = 40
_KHI = 80
_PHI = 0
_X = 0
_Y = -25
_Z = 0
_DETECTOR = 1
; Detector type : Scintillation counter
_HV = 687
_GAIN = 80
_LLD = 0.69
_ULD = 1.866
_DETECTORSLIT = unkn
_AUX1 = 0
_AUX2 = 0
_AUX3 = 0
_TIMESTARTED = 1.029e+004
_TEMP_RATE = -1
_TEMP_DELAY = -1
_KV = 35
_MA = 40
_RANGE_WL = 1.78897
_3DPLANE = 0
_V4_ADDITIONALDETECTOR = 0
_V4_D8_DIBNUM = 1
_V4_DETECTORNAME = "Detector 1"
_V4_TTLDETECTOR = None
_V4_DETECTORTYPE = 1
_V4_DETECTORFLAGS = 524545
_V4_DETECTORHV = 687
_V4_DETECTORGAIN = 80
_V4_DETECTORLLD1 = 0.69
_V4_DETECTORWW1 = 1.176
_V4_DETECTORLLD2 = 0
_V4_DETECTORWW2 = 0
_V4_DETECTORPS = 0
_V4_DETECTORDT = 0
_V4_DETECTORPILEUPTIME = 0
_V4_COUNTERS_MASK = 1
_V4_DRIVES_MASK = 0
_V4_ENCODERS_MASK = 0
_2THETACOUNTS = 1
; 2THETA  Cnt1_D1
  40.0000        163
  40.1000        156
  40.2000        161
  40.3000        177
  40.4000        151
  40.5000        162
  40.6000        155
  40.7000        172
  40.8000        134
  40.9000        147
  41.0000        148
  41.1000        162
  41.2000        140
  41.3000        146
  41.4000        164
  41.5000        121
  41.6000        179
  41.7000        162
  41.8000        159
  41.9000        148
  42.0000        150
  42.1000        153
  42.2000        138
  42.3000        145
  42.4000        166
  42.5000        178
  42.6000        151
  42.7000        139
  42.8000        159
  42.9000        160
  43.0000        201
  43.1000        181
  43.2000        221
  43.3000        201
  43.4000        201
  43.5000        226
  43.6000        205
  43.7000        231
  43.8000        189
  43.9000        189
  44.0000        194
  44.1000        206
  44.2000        195
  44.3000        174
  44.4000        176
  44.5000        163
  44.6000        154
  44.7000        167
  44.8000        172
  44.9000        156
  45.0000        177
  45.1000        167
  45.2000        160
  45.3000        156
  45.4000        148
  45.5000        156
  45.6000        169
  45.7000        174
  45.8000        171
  45.9000        169
  46.0000        148
  46.1000        169
  46.2000        187
  46.3000        166
  46.4000        164
  46.5000        167
  46.6000        177
  46.7000        141
  46.8000        160
  46.9000        174
  47.0000        187
  47.1000        152
  47.2000        155
  47.3000        171
  47.4000        161
  47.5000        180
  47.6000        172
  47.7000        170
  47.8000        174
  47.9000        166
  48.0000        185
  48.1000        153
  48.2000        199
  48.3000        180
  48.4000        166
  48.5000        165
  48.6000        176
  48.7000        185
  48.8000        151
  48.9000        158
  49.0000        170
  49.1000        175
  49.2000        197
  49.3000        157
  49.4000        194
  49.5000        184
  49.6000        183
  49.7000        174
  49.8000        184
  49.9000        173
  50.0000        181
  50.1000        161
  50.2000        184
  50.3000        202
  50.4000        233
  50.5000        209
  50.6000        187
  50.7000        231
  50.8000        229
  50.9000        235
  51.0000        234
  51.1000        224
  51.2000        256
  51.3000        282
  51.4000        296
  51.5000        318
  51.6000        402
  51.7000        507
  51.8000        516
  51.9000        641
  52.0000        685
  52.1000        677
  52.2000        812
  52.3000        848
  52.4000        814
  52.5000        801
  52.6000        750
  52.7000        743
  52.8000        689
  52.9000        627
  53.0000        533
  53.1000        469
  53.2000        423
  53.3000        334
  53.4000        316
  53.5000        254
  53.6000        242
  53.7000        226
  53.8000        213
  53.9000        189
  54.0000        173
  54.1000        202
  54.2000        213
  54.3000        217
  54.4000        198
  54.5000        200
  54.6000        207
  54.7000        177
  54.8000        194
  54.9000        189
  55.0000        207
  55.1000        185
  55.2000        191
  55.3000        214
  55.4000        202
  55.5000        179
  55.6000        215
  55.7000        193
  55.8000        206
  55.9000        188
  56.0000        194
  56.1000        203
  56.2000        172
  56.3000        194
  56.4000        206
  56.5000        188
  56.6000        182
  56.7000        199
  56.8000        194
  56.9000        195
  57.0000        195
  57.1000        201
  57.2000        174
  57.3000        195
  57.4000        205
  57.5000        187
  57.6000        182
  57.7000        208
  57.8000        189
  57.9000        218
  58.0000        205
  58.1000        197
  58.2000        200
  58.3000        190
  58.4000        215
  58.5000        206
  58.6000        211
  58.7000        210
  58.8000        211
  58.9000        199
  59.0000        196
  59.1000        207
  59.2000        170
  59.3000        202
  59.4000        216
  59.5000        194
  59.6000        211
  59.7000        196
  59.8000        190
  59.9000        188
  60.0000        191
  60.1000        210
  60.2000        200
  60.3000        218
  60.4000        223
  60.5000        220
  60.6000        185
  60.7000        212
  60.8000        193
  60.9000        219
  61.0000        195
  61.1000        197
  61.2000        218
  61.3000        220
  61.4000        220
  61.5000        203
  61.6000        202
  61.7000        214
  61.8000        190
  61.9000        234
  62.0000        231
  62.1000        225
  62.2000        178
  62.3000        221
  62.4000        209
  62.5000        214
  62.6000        218
  62.7000        208
  62.8000        200
  62.9000        211
  63.0000        228
  63.1000        207
  63.2000        195
  63.3000        233
  63.4000        223
  63.5000        199
  63.6000        233
  63.7000        217
  63.8000        220
  63.9000        237
  64.0000        200
  64.1000        208
  64.2000        188
  64.3000        189
  64.4000        201
  64.5000        250
  64.6000        215
  64.7000        231
  64.8000        214
  64.9000        223
  65.0000        229
  65.1000        226
  65.2000        219
  65.3000        222
  65.4000        213
  65.5000        223
  65.6000        202
  65.7000        214
  65.8000        217
  65.9000        191
  66.0000        214
  66.1000        219
  66.2000        220
  66.3000        247
  66.4000        217
  66.5000        243
  66.6000        245
  66.7000        215
  66.8000        257
  66.9000        214
  67.0000        231
  67.1000        191
  67.2000        193
  67.3000        229
  67.4000        226
  67.5000        234
  67.6000        237
  67.7000        216
  67.8000        208
  67.9000        213
  68.0000        236
  68.1000        225
  68.2000        212
  68.3000        195
  68.4000        213
  68.5000        228
  68.6000        225
  68.7000        219
  68.8000        209
  68.9000        217
  69.0000        260
  69.1000        249
  69.2000        234
  69.3000        231
  69.4000        222
  69.5000        222
  69.6000        233
  69.7000        235
  69.8000        235
  69.9000        250
  70.0000        237
  70.1000        254
  70.2000        223
  70.3000        252
  70.4000        246
  70.5000        245
  70.6000        216
  70.7000        228
  70.8000        236
  70.9000        223
  71.0000        227
  71.1000        261
  71.2000        231
  71.3000        216
  71.4000        230
  71.5000        225
  71.6000        234
  71.7000        218
  71.8000        233
  71.9000        225
  72.0000        222
  72.1000        220
  72.2000        237
  72.3000        223
  72.4000        250
  72.5000        226
  72.6000        232
  72.7000        238
  72.8000        237
  72.9000        236
  73.0000        253
  73.1000        264
  73.2000        213
  73.3000        246
  73.4000        266
  73.5000        225
  73.6000        242
  73.7000        244
  73.8000        251
  73.9000        237
  74.0000        224
  74.1000        225
  74.2000        274
  74.3000        241
  74.4000        247
  74.5000        259
  74.6000        259
  74.7000        218
  74.8000        271
  74.9000        280
  75.0000        237
  75.1000        277
  75.2000        282
  75.3000        295
  75.4000        255
  75.5000        249
  75.6000        267
  75.7000        278
  75.8000        264
  75.9000        290
  76.0000        270
  76.1000        279
  76.2000        246
  76.3000        276
  76.4000        275
  76.5000        310
  76.6000        284
  76.7000        304
  76.8000        343
  76.9000        295
  77.0000        301
  77.1000        290
  77.2000        305
  77.3000        313
  77.4000        288
  77.5000        314
  77.6000        277
  77.7000        295
  77.8000        289
  77.9000        273
  78.0000        260
  78.1000        281
  78.2000        244
  78.3000        255
  78.4000        249
  78.5000        249
  78.6000        255
  78.7000        265
  78.8000        244
  78.9000        248
  79.0000        229
  79.1000        268
  79.2000        269
  79.3000        270
  79.4000        242
  79.5000        261
  79.6000        267
  79.7000        252
  79.8000        238
  79.9000        274
  80.0000        252
  80.1000        255
  80.2000        258
  80.3000        253
  80.4000        239
  80.5000        226
  80.6000        239
  80.7000        272
  80.8000        285
  80.9000        239
  81.0000        267
  81.1000        294
  81.2000        254
  81.3000        264
  81.4000        221
  81.5000        264
  81.6000        248
  81.7000        292
  81.8000        234
  81.9000        265
  82.0000        229
  82.1000        268
  82.2000        259
  82.3000        268
  82.4000        260
  82.5000        279
  82.6000        264
  82.7000        265
  82.8000        262
  82.9000        253
  83.0000        252
  83.1000        257
  83.2000        302
  83.3000        278
  83.4000        249
  83.5000        264
  83.6000        268
  83.7000        266
  83.8000        278
  83.9000        224
  84.0000        255
  84.1000        269
  84.2000        248
  84.3000        268
  84.4000        266
  84.5000        298
  84.6000        289
  84.7000        263
  84.8000        268
  84.9000        255
  85.0000        256
  85.1000        274
  85.2000        251
  85.3000        255
  85.4000        278
  85.5000        252
  85.6000        281
  85.7000        286
  85.8000        273
  85.9000        268
  86.0000        253
  86.1000        276
  86.2000        282
  86.3000        259
  86.4000        260
  86.5000        278
  86.6000        284
  86.7000        292
  86.8000        294
  86.9000        269
  87.0000        275
  87.1000        267
  87.2000        286
  87.3000        280
  87.4000        284
  87.5000        270
  87.6000        296
  87.7000        275
  87.8000        257
  87.9000        279
  88.0000        262
  88.1000        285
  88.2000        261
  88.3000        279
  88.4000        308
  88.5000        300
  88.6000        262
  88.7000        264
  88.8000        282
  88.9000        343
  89.0000        263
  89.1000        278
  89.2000        302
  89.3000        286
  89.4000        255
  89.5000        294
  89.6000        319
  89.7000        248
  89.8000        286
  89.9000        295
  90.0000        294
  90.1000        309
  90.2000        304
  90.3000        283
  90.4000        321
  90.5000        305
  90.6000        280
  90.7000        300
  90.8000        271
  90.9000        286
  91.0000        292
  91.1000        259
  91.2000        272
  91.3000        298
  91.4000        285
  91.5000        294
  91.6000        291
  91.7000        314
  91.8000        302
  91.9000        301
  92.0000        291
  92.1000        291
  92.2000        260
  92.3000        283
  92.4000        327
  92.5000        260
  92.6000        297
  92.7000        282
  92.8000        332
  92.9000        301
  93.0000        306
  93.1000        303
  93.2000        299
  93.3000        311
  93.4000        332
  93.5000        281
  93.6000        292
  93.7000        308
  93.8000        311
  93.9000        277
  94.0000        269
  94.1000        297
  94.2000        286
  94.3000        287
  94.4000        290
  94.5000        280
  94.6000        313
  94.7000        311
  94.8000        303
  94.9000        305
  95.0000        289
  95.1000        311
  95.2000        319
  95.3000        285
  95.4000        317
  95.5000        328
  95.6000        330
  95.7000        324
  95.8000        304
  95.9000        292
  96.0000        310
  96.1000        286
  96.2000        296
  96.3000        299
  96.4000        321
  96.5000        310
  96.6000        299
  96.7000        326
  96.8000        326
  96.9000        304
  97.0000        324
  97.1000        309
  97.2000        355
  97.3000        337
  97.4000        318
  97.5000        315
  97.6000        324
  97.7000        329
  97.8000        342
  97.9000        348
  98.0000        346
  98.1000        394
  98.2000        396
  98.3000        381
  98.4000        451
  98.5000        440
  98.6000        487
  98.7000        536
  98.8000        495
  98.9000        530
  99.0000        578
  99.1000        529
  99.2000        578
  99.3000        579
  99.4000        567
  99.5000        552
  99.6000        544
  99.7000        523
  99.8000        518
  99.9000        497
 100.0000        463
 100.1000        432
 100.2000        432
 100.3000        429
 100.4000        398
 100.5000        364
 100.6000        379
 100.7000        356
 100.8000        313
 100.9000        343
 101.0000        352
 101.1000        347
 101.2000        337
 101.3000        290
 101.4000        333
 101.5000        309
 101.6000        328
 101.7000        328
 101.8000        294
 101.9000        338
 102.0000        336
 102.1000        328
 102.2000        341
 102.3000        304
 102.4000        371
 102.5000        353
 102.6000        361
 102.7000        336
 102.8000        344
 102.9000        334
 103.0000        349
 103.1000        317
 103.2000        335
 103.3000        295
 103.4000        369
 103.5000        334
 103.6000        343
 103.7000        339
 103.8000        327
 103.9000        320
 104.0000        328
 104.1000        347
 104.2000        323
 104.3000        343
 104.4000        314
 104.5000        316
 104.6000        340
 104.7000        314
 104.8000        334
 104.9000        340
 105.0000        377
 105.1000        317
 105.2000        347
 105.3000        352
 105.4000        362
 105.5000        337
 105.6000        380
 105.7000        350
 105.8000        346
 105.9000        365
 106.0000        332
 106.1000        333
 106.2000        321
 106.3000        347
 106.4000        357
 106.5000        339
 106.6000        348
 106.7000        346
 106.8000        339
 106.9000        340
 107.0000        326
 107.1000        358
 107.2000        328
 107.3000        352
 107.4000        340
 107.5000        340
 107.6000        334
 107.7000        359
 107.8000        315
 107.9000        349
 108.0000        394
 108.1000        391
 108.2000        342
 108.3000        356
 108.4000        340
 108.5000        386
 108.6000        345
 108.7000        342
 108.8000        358
 108.9000        345
 109.0000        354
 109.1000        344
 109.2000        373
 109.3000        337
 109.4000        352
 109.5000        343
 109.6000        332
 109.7000        391
 109.8000        373
 109.9000        323
 110.0000        366
 110.1000        366
 110.2000        334
 110.3000        368
 110.4000        355
 110.5000        351
 110.6000        352
 110.7000        388
 110.8000        337
 110.9000        365
 111.0000        352
 111.1000        373
 111.2000        333
 111.3000        369
 111.4000        370
 111.5000        354
 111.6000        405
 111.7000        397
 111.8000        353
 111.9000        364
 112.0000        373
 112.1000        373
 112.2000        356
 112.3000        366
 112.4000        353
 112.5000        374
 112.6000        363
 112.7000        350
 112.8000        381
 112.9000        385
 113.0000        380
 113.1000        368
 113.2000        408
 113.3000        373
 113.4000        403
 113.5000        399
 113.6000        377
 113.7000        398
 113.8000        348
 113.9000        376
 114.0000        374
 114.1000        377
 114.2000        386
 114.3000        396
 114.4000        375
 114.5000        369
 114.6000        363
 114.7000        375
 114.8000        366
 114.9000        382
 115.0000        371
 115.1000        337
 115.2000        373
 115.3000        379
 115.4000        351
 115.5000        410
 115.6000        383
 115.7000        405
 115.8000        379
 115.9000        358
 116.0000        358
 116.1000        380
 116.2000        398
 116.3000        388
 116.4000        371
 116.5000        369
 116.6000        415
 116.7000        386
 116.8000        390
 116.9000        340
 117.0000        362
 117.1000        411
 117.2000        429
 117.3000        398
 117.4000        379
 117.5000        387
 117.6000        390
 117.7000        371
 117.8000        407
 117.9000        408
 118.0000        422
 118.1000        379
 118.2000        360
 118.3000        423
 118.4000        372
 118.5000        407
 118.6000        425
 118.7000        388
 118.8000        388
 118.9000        375
 119.0000        396
 119.1000        410
 119.2000        412
 119.3000        376
 119.4000        382
 119.5000        425
 119.6000        371
 119.7000        395
 119.8000        436
 119.9000        399
 120.0000        420
 120.1000        426
 120.2000        376
 120.3000        399
 120.4000        394
 120.5000        361
 120.6000        407
 120.7000        393
 120.8000        414
 120.9000        403
 121.0000        388
 121.1000        433
 121.2000        426
 121.3000        403
 121.4000        434
 121.5000        379
 121.6000        412
 121.7000        424
 121.8000        451
 121.9000        399
 122.0000        412
 122.1000        445
 122.2000        411
 122.3000        463
 122.4000        437
 122.5000        489
 122.6000        481
 122.7000        497
 122.8000        499
 122.9000        506
 123.0000        497
 123.1000        537
 123.2000        530
 123.3000        542
 123.4000        566
 123.5000        529
 123.6000        480
 123.7000        524
 123.8000        516
 123.9000        469
 124.0000        498
 124.1000        473
 124.2000        458
 124.3000        469
 124.4000        463
 124.5000        472
 124.6000        466
 124.7000        424
 124.8000        413
 124.9000        449
 125.0000        440
 125.1000        432
 125.2000        408
 125.3000        436
 125.4000        435
 125.5000        418
 125.6000        421
 125.7000        385
 125.8000        455
 125.9000        428
 126.0000        425
 126.1000        406
 126.2000        427
 126.3000        410
 126.4000        377
 126.5000        411
 126.6000        438
 126.7000        438
 126.8000        418
 126.9000        432
 127.0000        405
 127.1000        415
 127.2000        413
 127.3000        418
 127.4000        414
 127.5000        400
 127.6000        407
 127.7000        443
 127.8000        411
 127.9000        445
 128.0000        415
 128.1000        396
 128.2000        451
 128.3000        423
 128.4000        405
 128.5000        429
 128.6000        411
 128.7000        443
 128.8000        406
 128.9000        445
 129.0000        433
 129.1000        435
 129.2000        403
 129.3000        396
 129.4000        413
 129.5000        408
 129.6000        390
 129.7000        437
 129.8000        432
 129.9000        421
 130.0000        443