File: exp_dat/old/exp_2013_11_11/12pct_20L.uxd
; (content of file C:\DIFFDAT1\GIFT\MDL\Seawoong Lee\20131104_MV8\equal_area_maxkhi080_n8_2th40_130_x25y25_20L.raw)
_FILEVERSION = 3
_SAMPLE =
_+SAMPLE =
_SITE = Korea
_USER = Admin
_GONIOMETER_CODE = 20
; Goniometer : D8 theta/2theta, stage : Unknown
_SAMPLE_CHANGER_CODE = 0
_ATTACHMENTS_CODE = 0
_GONIOMETER_RADIUS = 300
_FIXED_DIVSLIT = 1
_FIXED_SAMPLESLIT = 0
_SOLLER_SLITS = 2
_FIXED_DETSLIT = 0.1
_MONOCHROMATOR = 0
; Incident beam monochromator : None
_SOLLER_SLITS_2 = 2
_THIN_FILM = N
_BETA_FILTER = Y
_FIXED_ANTISLIT = 0.6
_ANALYZER_CODE = 0
; Received beam analyzer : None
_DATEMEASURED = "06-Nov-2013 19:06:35"
_WL_UNIT = A
_WL1 = 1.78897
_WL2 = 1.79285
_WL3 = 1.62079
_WLRATIO = 0.5
_ANODE = Co
_V4_INF_CREATOR = XRDWizard
_V4_INF_CREATOR_VERSION = V2.9.0.22
_V4_INF_WIZARD_VERSION = V2.9.0.22
_V4_INF_WIZARD_ADDINS = V2.9.0.22
_V4_INF_WIZARD_DOCTYPE = XRD
_V4_INF_OSUSER = Postech
_V4_INF_USER = Admin
_V4_INF_SITE = Korea

; Data for range 1
_DRIVE = COUPLED
_STEPTIME = 0.2
_STEPSIZE = 0.1
_STEPMODE = C
_START = 40
_THETA = 20
_2THETA = 40
_KHI = 0
_PHI = 0
_X = 25
_Y = 25
_Z = 0
_DETECTOR = 1
; Detector type : Scintillation counter
_HV = 687
_GAIN = 80
_LLD = 0.69
_ULD = 1.866
_DETECTORSLIT = unkn
_AUX1 = 0
_AUX2 = 0
_AUX3 = 0
_TIMESTARTED = 28
_TEMP_RATE = -1
_TEMP_DELAY = -1
_KV = 35
_MA = 40
_RANGE_WL = 1.78897
_3DPLANE = 0
_V4_ADDITIONALDETECTOR = 0
_V4_D8_DIBNUM = 1
_V4_DETECTORNAME = "Detector 1"
_V4_TTLDETECTOR = None
_V4_DETECTORTYPE = 1
_V4_DETECTORFLAGS = 524545
_V4_DETECTORHV = 687
_V4_DETECTORGAIN = 80
_V4_DETECTORLLD1 = 0.69
_V4_DETECTORWW1 = 1.176
_V4_DETECTORLLD2 = 0
_V4_DETECTORWW2 = 0
_V4_DETECTORPS = 0
_V4_DETECTORDT = 0
_V4_DETECTORPILEUPTIME = 0
_V4_COUNTERS_MASK = 1
_V4_DRIVES_MASK = 0
_V4_ENCODERS_MASK = 0
_2THETACOUNTS = 1
; 2THETA  Cnt1_D1
  40.0000        538
  40.1000        551
  40.2000        510
  40.3000        533
  40.4000        551
  40.5000        546
  40.6000        535
  40.7000        544
  40.8000        532
  40.9000        499
  41.0000        565
  41.1000        538
  41.2000        542
  41.3000        519
  41.4000        519
  41.5000        456
  41.6000        540
  41.7000        526
  41.8000        520
  41.9000        517
  42.0000        549
  42.1000        482
  42.2000        517
  42.3000        511
  42.4000        537
  42.5000        474
  42.6000        528
  42.7000        477
  42.8000        506
  42.9000        534
  43.0000        498
  43.1000        514
  43.2000        515
  43.3000        529
  43.4000        530
  43.5000        546
  43.6000        538
  43.7000        513
  43.8000        504
  43.9000        522
  44.0000        504
  44.1000        506
  44.2000        547
  44.3000        494
  44.4000        506
  44.5000        533
  44.6000        519
  44.7000        515
  44.8000        497
  44.9000        517
  45.0000        547
  45.1000        521
  45.2000        505
  45.3000        505
  45.4000        493
  45.5000        534
  45.6000        507
  45.7000        503
  45.8000        469
  45.9000        510
  46.0000        516
  46.1000        507
  46.2000        497
  46.3000        544
  46.4000        492
  46.5000        532
  46.6000        520
  46.7000        520
  46.8000        523
  46.9000        510
  47.0000        544
  47.1000        557
  47.2000        528
  47.3000        519
  47.4000        543
  47.5000        526
  47.6000        527
  47.7000        536
  47.8000        502
  47.9000        513
  48.0000        503
  48.1000        538
  48.2000        512
  48.3000        491
  48.4000        518
  48.5000        515
  48.6000        537
  48.7000        539
  48.8000        490
  48.9000        542
  49.0000        522
  49.1000        514
  49.2000        512
  49.3000        512
  49.4000        519
  49.5000        502
  49.6000        534
  49.7000        481
  49.8000        503
  49.9000        545
  50.0000        532
  50.1000        515
  50.2000        474
  50.3000        540
  50.4000        498
  50.5000        591
  50.6000        507
  50.7000        544
  50.8000        554
  50.9000        543
  51.0000        548
  51.1000        565
  51.2000        627
  51.3000        570
  51.4000        602
  51.5000        663
  51.6000        774
  51.7000        871
  51.8000       1213
  51.9000       1254
  52.0000       1391
  52.1000       1350
  52.2000       1408
  52.3000       1315
  52.4000       1328
  52.5000       1177
  52.6000       1015
  52.7000        820
  52.8000        599
  52.9000        552
  53.0000        537
  53.1000        551
  53.2000        518
  53.3000        545
  53.4000        553
  53.5000        542
  53.6000        520
  53.7000        571
  53.8000        551
  53.9000        524
  54.0000        512
  54.1000        530
  54.2000        509
  54.3000        541
  54.4000        513
  54.5000        549
  54.6000        547
  54.7000        510
  54.8000        502
  54.9000        536
  55.0000        497
  55.1000        603
  55.2000        533
  55.3000        532
  55.4000        537
  55.5000        517
  55.6000        539
  55.7000        567
  55.8000        499
  55.9000        485
  56.0000        512
  56.1000        537
  56.2000        532
  56.3000        542
  56.4000        495
  56.5000        560
  56.6000        514
  56.7000        501
  56.8000        520
  56.9000        528
  57.0000        480
  57.1000        541
  57.2000        500
  57.3000        495
  57.4000        485
  57.5000        553
  57.6000        495
  57.7000        499
  57.8000        558
  57.9000        505
  58.0000        508
  58.1000        500
  58.2000        519
  58.3000        492
  58.4000        519
  58.5000        515
  58.6000        507
  58.7000        518
  58.8000        501
  58.9000        507
  59.0000        554
  59.1000        529
  59.2000        542
  59.3000        522
  59.4000        538
  59.5000        564
  59.6000        539
  59.7000        530
  59.8000        527
  59.9000        551
  60.0000        525
  60.1000        517
  60.2000        517
  60.3000        507
  60.4000        559
  60.5000        503
  60.6000        513
  60.7000        515
  60.8000        501
  60.9000        539
  61.0000        522
  61.1000        487
  61.2000        529
  61.3000        523
  61.4000        494
  61.5000        515
  61.6000        500
  61.7000        469
  61.8000        525
  61.9000        504
  62.0000        453
  62.1000        479
  62.2000        503
  62.3000        519
  62.4000        516
  62.5000        526
  62.6000        504
  62.7000        515
  62.8000        510
  62.9000        510
  63.0000        509
  63.1000        550
  63.2000        501
  63.3000        481
  63.4000        506
  63.5000        532
  63.6000        545
  63.7000        524
  63.8000        494
  63.9000        491
  64.0000        483
  64.1000        549
  64.2000        541
  64.3000        481
  64.4000        516
  64.5000        484
  64.6000        470
  64.7000        514
  64.8000        491
  64.9000        523
  65.0000        477
  65.1000        516
  65.2000        514
  65.3000        532
  65.4000        487
  65.5000        488
  65.6000        516
  65.7000        498
  65.8000        507
  65.9000        541
  66.0000        518
  66.1000        519
  66.2000        507
  66.3000        499
  66.4000        514
  66.5000        535
  66.6000        506
  66.7000        506
  66.8000        481
  66.9000        546
  67.0000        517
  67.1000        556
  67.2000        472
  67.3000        506
  67.4000        514
  67.5000        510
  67.6000        489
  67.7000        564
  67.8000        554
  67.9000        500
  68.0000        490
  68.1000        489
  68.2000        501
  68.3000        535
  68.4000        514
  68.5000        504
  68.6000        543
  68.7000        568
  68.8000        497
  68.9000        534
  69.0000        493
  69.1000        516
  69.2000        521
  69.3000        530
  69.4000        490
  69.5000        504
  69.6000        516
  69.7000        484
  69.8000        496
  69.9000        550
  70.0000        518
  70.1000        532
  70.2000        517
  70.3000        520
  70.4000        520
  70.5000        539
  70.6000        526
  70.7000        543
  70.8000        506
  70.9000        483
  71.0000        540
  71.1000        510
  71.2000        514
  71.3000        515
  71.4000        447
  71.5000        510
  71.6000        497
  71.7000        495
  71.8000        557
  71.9000        529
  72.0000        528
  72.1000        504
  72.2000        495
  72.3000        503
  72.4000        524
  72.5000        532
  72.6000        492
  72.7000        499
  72.8000        467
  72.9000        504
  73.0000        487
  73.1000        495
  73.2000        488
  73.3000        546
  73.4000        518
  73.5000        506
  73.6000        491
  73.7000        522
  73.8000        524
  73.9000        469
  74.0000        497
  74.1000        477
  74.2000        511
  74.3000        516
  74.4000        534
  74.5000        498
  74.6000        553
  74.7000        515
  74.8000        527
  74.9000        468
  75.0000        513
  75.1000        553
  75.2000        546
  75.3000        514
  75.4000        518
  75.5000        478
  75.6000        515
  75.7000        540
  75.8000        544
  75.9000        513
  76.0000        546
  76.1000        548
  76.2000        587
  76.3000        618
  76.4000        703
  76.5000        762
  76.6000        890
  76.7000        966
  76.8000       1009
  76.9000       1022
  77.0000        971
  77.1000        967
  77.2000        887
  77.3000        860
  77.4000        801
  77.5000        715
  77.6000        581
  77.7000        549
  77.8000        554
  77.9000        517
  78.0000        528
  78.1000        552
  78.2000        546
  78.3000        533
  78.4000        520
  78.5000        504
  78.6000        493
  78.7000        516
  78.8000        487
  78.9000        532
  79.0000        528
  79.1000        543
  79.2000        541
  79.3000        512
  79.4000        489
  79.5000        469
  79.6000        505
  79.7000        500
  79.8000        479
  79.9000        483
  80.0000        529
  80.1000        514
  80.2000        519
  80.3000        531
  80.4000        515
  80.5000        477
  80.6000        518
  80.7000        489
  80.8000        535
  80.9000        496
  81.0000        555
  81.1000        546
  81.2000        507
  81.3000        513
  81.4000        510
  81.5000        507
  81.6000        508
  81.7000        489
  81.8000        473
  81.9000        520
  82.0000        502
  82.1000        474
  82.2000        465
  82.3000        561
  82.4000        537
  82.5000        536
  82.6000        513
  82.7000        519
  82.8000        512
  82.9000        505
  83.0000        521
  83.1000        509
  83.2000        484
  83.3000        521
  83.4000        529
  83.5000        521
  83.6000        506
  83.7000        513
  83.8000        484
  83.9000        481
  84.0000        505
  84.1000        519
  84.2000        576
  84.3000        536
  84.4000        491
  84.5000        535
  84.6000        502
  84.7000        487
  84.8000        502
  84.9000        509
  85.0000        441
  85.1000        536
  85.2000        536
  85.3000        491
  85.4000        543
  85.5000        474
  85.6000        500
  85.7000        501
  85.8000        505
  85.9000        517
  86.0000        517
  86.1000        520
  86.2000        523
  86.3000        476
  86.4000        516
  86.5000        488
  86.6000        522
  86.7000        498
  86.8000        508
  86.9000        494
  87.0000        565
  87.1000        549
  87.2000        532
  87.3000        474
  87.4000        522
  87.5000        509
  87.6000        487
  87.7000        496
  87.8000        505
  87.9000        530
  88.0000        481
  88.1000        478
  88.2000        509
  88.3000        549
  88.4000        494
  88.5000        509
  88.6000        560
  88.7000        623
  88.8000        583
  88.9000        604
  89.0000        603
  89.1000        638
  89.2000        601
  89.3000        595
  89.4000        638
  89.5000        610
  89.6000        623
  89.7000        609
  89.8000        589
  89.9000        565
  90.0000        579
  90.1000        541
  90.2000        580
  90.3000        507
  90.4000        553
  90.5000        524
  90.6000        507
  90.7000        520
  90.8000        552
  90.9000        492
  91.0000        482
  91.1000        481
  91.2000        515
  91.3000        529
  91.4000        509
  91.5000        569
  91.6000        530
  91.7000        524
  91.8000        521
  91.9000        539
  92.0000        525
  92.1000        488
  92.2000        511
  92.3000        486
  92.4000        514
  92.5000        475
  92.6000        501
  92.7000        524
  92.8000        493
  92.9000        480
  93.0000        551
  93.1000        481
  93.2000        483
  93.3000        513
  93.4000        519
  93.5000        524
  93.6000        473
  93.7000        538
  93.8000        508
  93.9000        492
  94.0000        503
  94.1000        473
  94.2000        483
  94.3000        538
  94.4000        536
  94.5000        518
  94.6000        494
  94.7000        507
  94.8000        517
  94.9000        492
  95.0000        519
  95.1000        472
  95.2000        536
  95.3000        488
  95.4000        491
  95.5000        567
  95.6000        529
  95.7000        504
  95.8000        512
  95.9000        518
  96.0000        500
  96.1000        534
  96.2000        504
  96.3000        506
  96.4000        499
  96.5000        508
  96.6000        509
  96.7000        499
  96.8000        500
  96.9000        492
  97.0000        512
  97.1000        540
  97.2000        517
  97.3000        566
  97.4000        540
  97.5000        564
  97.6000        537
  97.7000        541
  97.8000        527
  97.9000        583
  98.0000        579
  98.1000        560
  98.2000        534
  98.3000        590
  98.4000        572
  98.5000        619
  98.6000        680
  98.7000        781
  98.8000        912
  98.9000       1176
  99.0000       1234
  99.1000       1294
  99.2000       1452
  99.3000       1507
  99.4000       1502
  99.5000       1454
  99.6000       1321
  99.7000       1147
  99.8000       1026
  99.9000        917
 100.0000        768
 100.1000        697
 100.2000        630
 100.3000        579
 100.4000        571
 100.5000        527
 100.6000        580
 100.7000        576
 100.8000        495
 100.9000        504
 101.0000        534
 101.1000        529
 101.2000        507
 101.3000        488
 101.4000        542
 101.5000        526
 101.6000        527
 101.7000        500
 101.8000        513
 101.9000        530
 102.0000        494
 102.1000        562
 102.2000        501
 102.3000        558
 102.4000        540
 102.5000        504
 102.6000        494
 102.7000        536
 102.8000        527
 102.9000        498
 103.0000        535
 103.1000        528
 103.2000        506
 103.3000        534
 103.4000        562
 103.5000        521
 103.6000        523
 103.7000        513
 103.8000        547
 103.9000        490
 104.0000        505
 104.1000        498
 104.2000        521
 104.3000        494
 104.4000        474
 104.5000        515
 104.6000        514
 104.7000        547
 104.8000        515
 104.9000        505
 105.0000        476
 105.1000        512
 105.2000        514
 105.3000        512
 105.4000        482
 105.5000        515
 105.6000        490
 105.7000        460
 105.8000        533
 105.9000        505
 106.0000        469
 106.1000        535
 106.2000        521
 106.3000        532
 106.4000        506
 106.5000        553
 106.6000        463
 106.7000        490
 106.8000        549
 106.9000        505
 107.0000        544
 107.1000        528
 107.2000        531
 107.3000        516
 107.4000        495
 107.5000        495
 107.6000        508
 107.7000        506
 107.8000        512
 107.9000        494
 108.0000        516
 108.1000        524
 108.2000        515
 108.3000        554
 108.4000        482
 108.5000        533
 108.6000        511
 108.7000        497
 108.8000        553
 108.9000        508
 109.0000        529
 109.1000        480
 109.2000        512
 109.3000        576
 109.4000        529
 109.5000        518
 109.6000        550
 109.7000        559
 109.8000        540
 109.9000        522
 110.0000        513
 110.1000        531
 110.2000        575
 110.3000        567
 110.4000        547
 110.5000        513
 110.6000        518
 110.7000        551
 110.8000        560
 110.9000        551
 111.0000        558
 111.1000        534
 111.2000        522
 111.3000        555
 111.4000        559
 111.5000        574
 111.6000        536
 111.7000        509
 111.8000        522
 111.9000        527
 112.0000        564
 112.1000        516
 112.2000        536
 112.3000        518
 112.4000        512
 112.5000        495
 112.6000        528
 112.7000        475
 112.8000        482
 112.9000        510
 113.0000        522
 113.1000        479
 113.2000        524
 113.3000        548
 113.4000        505
 113.5000        485
 113.6000        511
 113.7000        483
 113.8000        508
 113.9000        520
 114.0000        507
 114.1000        510
 114.2000        514
 114.3000        533
 114.4000        505
 114.5000        531
 114.6000        506
 114.7000        461
 114.8000        528
 114.9000        481
 115.0000        489
 115.1000        490
 115.2000        549
 115.3000        480
 115.4000        495
 115.5000        462
 115.6000        538
 115.7000        483
 115.8000        506
 115.9000        518
 116.0000        514
 116.1000        514
 116.2000        557
 116.3000        516
 116.4000        491
 116.5000        545
 116.6000        547
 116.7000        515
 116.8000        504
 116.9000        480
 117.0000        549
 117.1000        532
 117.2000        513
 117.3000        522
 117.4000        495
 117.5000        519
 117.6000        513
 117.7000        518
 117.8000        474
 117.9000        490
 118.0000        512
 118.1000        505
 118.2000        514
 118.3000        525
 118.4000        470
 118.5000        514
 118.6000        480
 118.7000        539
 118.8000        527
 118.9000        496
 119.0000        502
 119.1000        517
 119.2000        526
 119.3000        530
 119.4000        491
 119.5000        508
 119.6000        536
 119.7000        519
 119.8000        533
 119.9000        554
 120.0000        522
 120.1000        481
 120.2000        476
 120.3000        511
 120.4000        532
 120.5000        500
 120.6000        520
 120.7000        529
 120.8000        519
 120.9000        497
 121.0000        492
 121.1000        519
 121.2000        501
 121.3000        526
 121.4000        525
 121.5000        478
 121.6000        480
 121.7000        505
 121.8000        490
 121.9000        503
 122.0000        548
 122.1000        542
 122.2000        561
 122.3000        527
 122.4000        510
 122.5000        505
 122.6000        529
 122.7000        534
 122.8000        561
 122.9000        531
 123.0000        566
 123.1000        559
 123.2000        593
 123.3000        669
 123.4000        618
 123.5000        615
 123.6000        616
 123.7000        577
 123.8000        576
 123.9000        530
 124.0000        566
 124.1000        522
 124.2000        550
 124.3000        580
 124.4000        578
 124.5000        521
 124.6000        508
 124.7000        543
 124.8000        505
 124.9000        491
 125.0000        493
 125.1000        484
 125.2000        519
 125.3000        487
 125.4000        487
 125.5000        542
 125.6000        526
 125.7000        499
 125.8000        553
 125.9000        495
 126.0000        509
 126.1000        549
 126.2000        502
 126.3000        466
 126.4000        488
 126.5000        541
 126.6000        480
 126.7000        520
 126.8000        528
 126.9000        478
 127.0000        498
 127.1000        495
 127.2000        485
 127.3000        485
 127.4000        521
 127.5000        488
 127.6000        517
 127.7000        517
 127.8000        521
 127.9000        503
 128.0000        556
 128.1000        521
 128.2000        503
 128.3000        549
 128.4000        525
 128.5000        530
 128.6000        471
 128.7000        605
 128.8000        506
 128.9000        523
 129.0000        562
 129.1000        524
 129.2000        515
 129.3000        495
 129.4000        537
 129.5000        549
 129.6000        483
 129.7000        531
 129.8000        499
 129.9000        524
 130.0000        487

; Data for range 2
_DRIVE = COUPLED
_STEPTIME = 0.2
_STEPSIZE = 0.1
_STEPMODE = C
_START = 40
_THETA = 20
_2THETA = 40
_KHI = 10.5
_PHI = 60
_X = 25
_Y = 25
_Z = 0
_DETECTOR = 1
; Detector type : Scintillation counter
_HV = 687
_GAIN = 80
_LLD = 0.69
_ULD = 1.866
_DETECTORSLIT = unkn
_AUX1 = 0
_AUX2 = 0
_AUX3 = 0
_TIMESTARTED = 225
_TEMP_RATE = -1
_TEMP_DELAY = -1
_KV = 35
_MA = 40
_RANGE_WL = 1.78897
_3DPLANE = 0
_V4_ADDITIONALDETECTOR = 0
_V4_D8_DIBNUM = 1
_V4_DETECTORNAME = "Detector 1"
_V4_TTLDETECTOR = None
_V4_DETECTORTYPE = 1
_V4_DETECTORFLAGS = 524545
_V4_DETECTORHV = 687
_V4_DETECTORGAIN = 80
_V4_DETECTORLLD1 = 0.69
_V4_DETECTORWW1 = 1.176
_V4_DETECTORLLD2 = 0
_V4_DETECTORWW2 = 0
_V4_DETECTORPS = 0
_V4_DETECTORDT = 0
_V4_DETECTORPILEUPTIME = 0
_V4_COUNTERS_MASK = 1
_V4_DRIVES_MASK = 0
_V4_ENCODERS_MASK = 0
_2THETACOUNTS = 1
; 2THETA  Cnt1_D1
  40.0000        545
  40.1000        543
  40.2000        497
  40.3000        527
  40.4000        511
  40.5000        541
  40.6000        516
  40.7000        550
  40.8000        564
  40.9000        496
  41.0000        502
  41.1000        528
  41.2000        529
  41.3000        504
  41.4000        534
  41.5000        501
  41.6000        547
  41.7000        558
  41.8000        516
  41.9000        526
  42.0000        507
  42.1000        567
  42.2000        481
  42.3000        539
  42.4000        582
  42.5000        463
  42.6000        524
  42.7000        542
  42.8000        551
  42.9000        557
  43.0000        532
  43.1000        552
  43.2000        536
  43.3000        541
  43.4000        561
  43.5000        571
  43.6000        526
  43.7000        584
  43.8000        483
  43.9000        518
  44.0000        529
  44.1000        564
  44.2000        498
  44.3000        526
  44.4000        533
  44.5000        546
  44.6000        520
  44.7000        526
  44.8000        558
  44.9000        498
  45.0000        547
  45.1000        501
  45.2000        517
  45.3000        562
  45.4000        506
  45.5000        462
  45.6000        514
  45.7000        540
  45.8000        540
  45.9000        529
  46.0000        550
  46.1000        471
  46.2000        504
  46.3000        555
  46.4000        519
  46.5000        515
  46.6000        537
  46.7000        528
  46.8000        482
  46.9000        500
  47.0000        577
  47.1000        508
  47.2000        526
  47.3000        535
  47.4000        533
  47.5000        478
  47.6000        522
  47.7000        526
  47.8000        546
  47.9000        530
  48.0000        538
  48.1000        532
  48.2000        500
  48.3000        508
  48.4000        537
  48.5000        539
  48.6000        505
  48.7000        540
  48.8000        527
  48.9000        520
  49.0000        521
  49.1000        511
  49.2000        522
  49.3000        550
  49.4000        541
  49.5000        517
  49.6000        500
  49.7000        492
  49.8000        537
  49.9000        489
  50.0000        505
  50.1000        528
  50.2000        534
  50.3000        522
  50.4000        519
  50.5000        550
  50.6000        587
  50.7000        598
  50.8000        573
  50.9000        561
  51.0000        605
  51.1000        540
  51.2000        573
  51.3000        576
  51.4000        598
  51.5000        635
  51.6000        744
  51.7000        924
  51.8000       1070
  51.9000       1220
  52.0000       1312
  52.1000       1335
  52.2000       1317
  52.3000       1300
  52.4000       1264
  52.5000       1169
  52.6000        970
  52.7000        736
  52.8000        607
  52.9000        554
  53.0000        552
  53.1000        540
  53.2000        529
  53.3000        529
  53.4000        512
  53.5000        499
  53.6000        559
  53.7000        574
  53.8000        508
  53.9000        517
  54.0000        513
  54.1000        596
  54.2000        493
  54.3000        512
  54.4000        523
  54.5000        507
  54.6000        497
  54.7000        542
  54.8000        534
  54.9000        493
  55.0000        558
  55.1000        557
  55.2000        563
  55.3000        485
  55.4000        539
  55.5000        514
  55.6000        541
  55.7000        503
  55.8000        461
  55.9000        536
  56.0000        493
  56.1000        516
  56.2000        524
  56.3000        538
  56.4000        492
  56.5000        529
  56.6000        502
  56.7000        496
  56.8000        474
  56.9000        524
  57.0000        503
  57.1000        519
  57.2000        537
  57.3000        518
  57.4000        520
  57.5000        499
  57.6000        537
  57.7000        477
  57.8000        513
  57.9000        498
  58.0000        545
  58.1000        511
  58.2000        505
  58.3000        547
  58.4000        518
  58.5000        532
  58.6000        542
  58.7000        520
  58.8000        559
  58.9000        565
  59.0000        523
  59.1000        516
  59.2000        545
  59.3000        536
  59.4000        520
  59.5000        551
  59.6000        541
  59.7000        597
  59.8000        528
  59.9000        570
  60.0000        556
  60.1000        516
  60.2000        570
  60.3000        551
  60.4000        532
  60.5000        528
  60.6000        513
  60.7000        519
  60.8000        503
  60.9000        551
  61.0000        586
  61.1000        487
  61.2000        500
  61.3000        533
  61.4000        534
  61.5000        499
  61.6000        564
  61.7000        510
  61.8000        532
  61.9000        555
  62.0000        485
  62.1000        514
  62.2000        530
  62.3000        517
  62.4000        525
  62.5000        553
  62.6000        524
  62.7000        534
  62.8000        514
  62.9000        503
  63.0000        526
  63.1000        535
  63.2000        483
  63.3000        490
  63.4000        516
  63.5000        557
  63.6000        529
  63.7000        516
  63.8000        485
  63.9000        467
  64.0000        519
  64.1000        516
  64.2000        486
  64.3000        516
  64.4000        518
  64.5000        501
  64.6000        506
  64.7000        516
  64.8000        544
  64.9000        509
  65.0000        525
  65.1000        542
  65.2000        521
  65.3000        533
  65.4000        550
  65.5000        538
  65.6000        537
  65.7000        502
  65.8000        519
  65.9000        506
  66.0000        547
  66.1000        490
  66.2000        529
  66.3000        495
  66.4000        486
  66.5000        497
  66.6000        527
  66.7000        505
  66.8000        530
  66.9000        473
  67.0000        527
  67.1000        516
  67.2000        507
  67.3000        518
  67.4000        485
  67.5000        543
  67.6000        518
  67.7000        491
  67.8000        538
  67.9000        500
  68.0000        488
  68.1000        525
  68.2000        480
  68.3000        529
  68.4000        461
  68.5000        504
  68.6000        488
  68.7000        507
  68.8000        481
  68.9000        496
  69.0000        544
  69.1000        568
  69.2000        508
  69.3000        542
  69.4000        499
  69.5000        538
  69.6000        523
  69.7000        492
  69.8000        475
  69.9000        469
  70.0000        537
  70.1000        485
  70.2000        482
  70.3000        499
  70.4000        506
  70.5000        535
  70.6000        494
  70.7000        550
  70.8000        463
  70.9000        493
  71.0000        518
  71.1000        529
  71.2000        503
  71.3000        537
  71.4000        540
  71.5000        541
  71.6000        517
  71.7000        513
  71.8000        507
  71.9000        491
  72.0000        512
  72.1000        499
  72.2000        549
  72.3000        490
  72.4000        517
  72.5000        529
  72.6000        521
  72.7000        529
  72.8000        542
  72.9000        510
  73.0000        519
  73.1000        503
  73.2000        519
  73.3000        477
  73.4000        483
  73.5000        535
  73.6000        514
  73.7000        554
  73.8000        531
  73.9000        512
  74.0000        547
  74.1000        507
  74.2000        514
  74.3000        498
  74.4000        521
  74.5000        498
  74.6000        542
  74.7000        555
  74.8000        494
  74.9000        494
  75.0000        491
  75.1000        485
  75.2000        519
  75.3000        527
  75.4000        531
  75.5000        531
  75.6000        532
  75.7000        533
  75.8000        554
  75.9000        523
  76.0000        527
  76.1000        498
  76.2000        544
  76.3000        595
  76.4000        610
  76.5000        670
  76.6000        677
  76.7000        729
  76.8000        751
  76.9000        826
  77.0000        771
  77.1000        779
  77.2000        771
  77.3000        668
  77.4000        620
  77.5000        549
  77.6000        627
  77.7000        573
  77.8000        557
  77.9000        524
  78.0000        526
  78.1000        472
  78.2000        549
  78.3000        516
  78.4000        488
  78.5000        484
  78.6000        460
  78.7000        490
  78.8000        561
  78.9000        502
  79.0000        494
  79.1000        526
  79.2000        533
  79.3000        490
  79.4000        528
  79.5000        512
  79.6000        511
  79.7000        523
  79.8000        522
  79.9000        492
  80.0000        498
  80.1000        463
  80.2000        464
  80.3000        490
  80.4000        524
  80.5000        497
  80.6000        520
  80.7000        518
  80.8000        539
  80.9000        507
  81.0000        554
  81.1000        503
  81.2000        507
  81.3000        527
  81.4000        536
  81.5000        482
  81.6000        509
  81.7000        522
  81.8000        510
  81.9000        530
  82.0000        468
  82.1000        512
  82.2000        518
  82.3000        522
  82.4000        531
  82.5000        516
  82.6000        526
  82.7000        524
  82.8000        532
  82.9000        513
  83.0000        540
  83.1000        501
  83.2000        537
  83.3000        489
  83.4000        529
  83.5000        489
  83.6000        497
  83.7000        498
  83.8000        528
  83.9000        526
  84.0000        527
  84.1000        529
  84.2000        491
  84.3000        490
  84.4000        481
  84.5000        522
  84.6000        507
  84.7000        488
  84.8000        514
  84.9000        484
  85.0000        486
  85.1000        516
  85.2000        513
  85.3000        514
  85.4000        527
  85.5000        518
  85.6000        541
  85.7000        513
  85.8000        545
  85.9000        563
  86.0000        502
  86.1000        538
  86.2000        501
  86.3000        500
  86.4000        522
  86.5000        518
  86.6000        514
  86.7000        520
  86.8000        469
  86.9000        521
  87.0000        546
  87.1000        502
  87.2000        517
  87.3000        538
  87.4000        498
  87.5000        538
  87.6000        516
  87.7000        508
  87.8000        491
  87.9000        517
  88.0000        535
  88.1000        489
  88.2000        473
  88.3000        495
  88.4000        514
  88.5000        536
  88.6000        533
  88.7000        482
  88.8000        534
  88.9000        599
  89.0000        563
  89.1000        573
  89.2000        541
  89.3000        559
  89.4000        605
  89.5000        577
  89.6000        561
  89.7000        592
  89.8000        592
  89.9000        549
  90.0000        510
  90.1000        567
  90.2000        541
  90.3000        535
  90.4000        577
  90.5000        513
  90.6000        537
  90.7000        551
  90.8000        527
  90.9000        565
  91.0000        562
  91.1000        509
  91.2000        518
  91.3000        506
  91.4000        517
  91.5000        517
  91.6000        522
  91.7000        481
  91.8000        520
  91.9000        533
  92.0000        478
  92.1000        538
  92.2000        536
  92.3000        520
  92.4000        508
  92.5000        490
  92.6000        503
  92.7000        500
  92.8000        503
  92.9000        520
  93.0000        499
  93.1000        501
  93.2000        491
  93.3000        493
  93.4000        481
  93.5000        495
  93.6000        531
  93.7000        516
  93.8000        529
  93.9000        491
  94.0000        515
  94.1000        544
  94.2000        519
  94.3000        528
  94.4000        521
  94.5000        506
  94.6000        532
  94.7000        500
  94.8000        480
  94.9000        479
  95.0000        498
  95.1000        549
  95.2000        475
  95.3000        526
  95.4000        569
  95.5000        501
  95.6000        500
  95.7000        522
  95.8000        547
  95.9000        488
  96.0000        529
  96.1000        484
  96.2000        519
  96.3000        511
  96.4000        498
  96.5000        559
  96.6000        528
  96.7000        541
  96.8000        545
  96.9000        457
  97.0000        530
  97.1000        497
  97.2000        544
  97.3000        486
  97.4000        508
  97.5000        576
  97.6000        524
  97.7000        504
  97.8000        494
  97.9000        519
  98.0000        564
  98.1000        570
  98.2000        546
  98.3000        586
  98.4000        555
  98.5000        568
  98.6000        656
  98.7000        683
  98.8000        769
  98.9000        789
  99.0000        884
  99.1000        975
  99.2000       1027
  99.3000       1053
  99.4000       1040
  99.5000       1049
  99.6000        944
  99.7000        970
  99.8000        810
  99.9000        714
 100.0000        654
 100.1000        607
 100.2000        582
 100.3000        561
 100.4000        543
 100.5000        533
 100.6000        551
 100.7000        502
 100.8000        518
 100.9000        526
 101.0000        534
 101.1000        514
 101.2000        509
 101.3000        527
 101.4000        524
 101.5000        503
 101.6000        507
 101.7000        544
 101.8000        519
 101.9000        509
 102.0000        553
 102.1000        501
 102.2000        523
 102.3000        501
 102.4000        508
 102.5000        534
 102.6000        528
 102.7000        512
 102.8000        498
 102.9000        505
 103.0000        496
 103.1000        492
 103.2000        563
 103.3000        520
 103.4000        475
 103.5000        522
 103.6000        527
 103.7000        524
 103.8000        546
 103.9000        511
 104.0000        520
 104.1000        524
 104.2000        498
 104.3000        501
 104.4000        503
 104.5000        493
 104.6000        462
 104.7000        534
 104.8000        533
 104.9000        524
 105.0000        547
 105.1000        503
 105.2000        505
 105.3000        496
 105.4000        530
 105.5000        541
 105.6000        575
 105.7000        493
 105.8000        488
 105.9000        526
 106.0000        513
 106.1000        496
 106.2000        497
 106.3000        537
 106.4000        506
 106.5000        465
 106.6000        493
 106.7000        525
 106.8000        470
 106.9000        504
 107.0000        510
 107.1000        509
 107.2000        558
 107.3000        485
 107.4000        513
 107.5000        494
 107.6000        488
 107.7000        510
 107.8000        511
 107.9000        484
 108.0000        519
 108.1000        544
 108.2000        506
 108.3000        489
 108.4000        493
 108.5000        563
 108.6000        457
 108.7000        516
 108.8000        494
 108.9000        481
 109.0000        518
 109.1000        544
 109.2000        519
 109.3000        533
 109.4000        521
 109.5000        523
 109.6000        521
 109.7000        523
 109.8000        541
 109.9000        542
 110.0000        498
 110.1000        534
 110.2000        536
 110.3000        511
 110.4000        526
 110.5000        573
 110.6000        574
 110.7000        522
 110.8000        529
 110.9000        506
 111.0000        569
 111.1000        568
 111.2000        605
 111.3000        515
 111.4000        545
 111.5000        555
 111.6000        530
 111.7000        532
 111.8000        535
 111.9000        562
 112.0000        499
 112.1000        552
 112.2000        485
 112.3000        546
 112.4000        537
 112.5000        488
 112.6000        522
 112.7000        513
 112.8000        477
 112.9000        515
 113.0000        508
 113.1000        540
 113.2000        545
 113.3000        474
 113.4000        514
 113.5000        498
 113.6000        489
 113.7000        528
 113.8000        513
 113.9000        534
 114.0000        478
 114.1000        518
 114.2000        514
 114.3000        501
 114.4000        467
 114.5000        470
 114.6000        539
 114.7000        509
 114.8000        506
 114.9000        476
 115.0000        506
 115.1000        527
 115.2000        504
 115.3000        552
 115.4000        510
 115.5000        525
 115.6000        534
 115.7000        485
 115.8000        521
 115.9000        497
 116.0000        540
 116.1000        531
 116.2000        501
 116.3000        472
 116.4000        551
 116.5000        504
 116.6000        481
 116.7000        503
 116.8000        513
 116.9000        501
 117.0000        550
 117.1000        528
 117.2000        494
 117.3000        567
 117.4000        505
 117.5000        488
 117.6000        532
 117.7000        520
 117.8000        576
 117.9000        490
 118.0000        501
 118.1000        512
 118.2000        510
 118.3000        506
 118.4000        548
 118.5000        469
 118.6000        523
 118.7000        492
 118.8000        535
 118.9000        462
 119.0000        537
 119.1000        508
 119.2000        493
 119.3000        475
 119.4000        541
 119.5000        535
 119.6000        487
 119.7000        479
 119.8000        520
 119.9000        523
 120.0000        536
 120.1000        498
 120.2000        467
 120.3000        499
 120.4000        490
 120.5000        498
 120.6000        537
 120.7000        510
 120.8000        497
 120.9000        501
 121.0000        528
 121.1000        480
 121.2000        491
 121.3000        503
 121.4000        550
 121.5000        491
 121.6000        488
 121.7000        556
 121.8000        533
 121.9000        523
 122.0000        548
 122.1000        541
 122.2000        499
 122.3000        523
 122.4000        483
 122.5000        487
 122.6000        559
 122.7000        565
 122.8000        533
 122.9000        569
 123.0000        592
 123.1000        562
 123.2000        596
 123.3000        566
 123.4000        593
 123.5000        608
 123.6000        595
 123.7000        589
 123.8000        568
 123.9000        539
 124.0000        534
 124.1000        530
 124.2000        588
 124.3000        489
 124.4000        501
 124.5000        500
 124.6000        508
 124.7000        558
 124.8000        534
 124.9000        496
 125.0000        538
 125.1000        510
 125.2000        516
 125.3000        525
 125.4000        494
 125.5000        544
 125.6000        539
 125.7000        502
 125.8000        519
 125.9000        505
 126.0000        507
 126.1000        490
 126.2000        500
 126.3000        516
 126.4000        526
 126.5000        530
 126.6000        500
 126.7000        526
 126.8000        470
 126.9000        516
 127.0000        507
 127.1000        490
 127.2000        521
 127.3000        505
 127.4000        506
 127.5000        509
 127.6000        510
[...]
 129.1000        383
 129.2000        386
 129.3000        421
 129.4000        391
 129.5000        414
 129.6000        413
 129.7000        388
 129.8000        398
 129.9000        383
 130.0000        411

; Data for range 53
_DRIVE = COUPLED
_STEPTIME = 0.2
_STEPSIZE = 0.1
_STEPMODE = C
_START = 40
_THETA = 20
_2THETA = 40
_KHI = 80
_PHI = 0
_X = 25
_Y = 25
_Z = 0
_DETECTOR = 1
; Detector type : Scintillation counter
_HV = 687
_GAIN = 80
_LLD = 0.69
_ULD = 1.866
_DETECTORSLIT = unkn
_AUX1 = 0
_AUX2 = 0
_AUX3 = 0
_TIMESTARTED = 1.03e+004
_TEMP_RATE = -1
_TEMP_DELAY = -1
_KV = 35
_MA = 40
_RANGE_WL = 1.78897
_3DPLANE = 0
_V4_ADDITIONALDETECTOR = 0
_V4_D8_DIBNUM = 1
_V4_DETECTORNAME = "Detector 1"
_V4_TTLDETECTOR = None
_V4_DETECTORTYPE = 1
_V4_DETECTORFLAGS = 524545
_V4_DETECTORHV = 687
_V4_DETECTORGAIN = 80
_V4_DETECTORLLD1 = 0.69
_V4_DETECTORWW1 = 1.176
_V4_DETECTORLLD2 = 0
_V4_DETECTORWW2 = 0
_V4_DETECTORPS = 0
_V4_DETECTORDT = 0
_V4_DETECTORPILEUPTIME = 0
_V4_COUNTERS_MASK = 1
_V4_DRIVES_MASK = 0
_V4_ENCODERS_MASK = 0
_2THETACOUNTS = 1
; 2THETA  Cnt1_D1
  40.0000        180
  40.1000        173
  40.2000        175
  40.3000        194
  40.4000        171
  40.5000        173
  40.6000        166
  40.7000        175
  40.8000        175
  40.9000        187
  41.0000        191
  41.1000        192
  41.2000        176
  41.3000        196
  41.4000        194
  41.5000        185
  41.6000        178
  41.7000        230
  41.8000        202
  41.9000        184
  42.0000        183
  42.1000        191
  42.2000        180
  42.3000        171
  42.4000        197
  42.5000        205
  42.6000        231
  42.7000        240
  42.8000        262
  42.9000        289
  43.0000        309
  43.1000        290
  43.2000        312
  43.3000        306
  43.4000        291
  43.5000        281
  43.6000        297
  43.7000        263
  43.8000        224
  43.9000        253
  44.0000        236
  44.1000        197
  44.2000        209
  44.3000        206
  44.4000        189
  44.5000        199
  44.6000        192
  44.7000        202
  44.8000        199
  44.9000        199
  45.0000        186
  45.1000        201
  45.2000        198
  45.3000        189
  45.4000        200
  45.5000        220
  45.6000        171
  45.7000        186
  45.8000        202
  45.9000        189
  46.0000        168
  46.1000        246
  46.2000        199
  46.3000        226
  46.4000        209
  46.5000        180
  46.6000        188
  46.7000        183
  46.8000        198
  46.9000        195
  47.0000        181
  47.1000        190
  47.2000        225
  47.3000        218
  47.4000        200
  47.5000        222
  47.6000        212
  47.7000        209
  47.8000        192
  47.9000        190
  48.0000        223
  48.1000        206
  48.2000        217
  48.3000        177
  48.4000        221
  48.5000        191
  48.6000        221
  48.7000        234
  48.8000        199
  48.9000        222
  49.0000        206
  49.1000        205
  49.2000        202
  49.3000        211
  49.4000        237
  49.5000        210
  49.6000        229
  49.7000        230
  49.8000        210
  49.9000        227
  50.0000        276
  50.1000        285
  50.2000        283
  50.3000        293
  50.4000        295
  50.5000        295
  50.6000        345
  50.7000        332
  50.8000        342
  50.9000        414
  51.0000        387
  51.1000        423
  51.2000        473
  51.3000        535
  51.4000        602
  51.5000        618
  51.6000        710
  51.7000        765
  51.8000        903
  51.9000        974
  52.0000       1009
  52.1000       1070
  52.2000       1089
  52.3000       1026
  52.4000       1021
  52.5000        972
  52.6000        902
  52.7000        797
  52.8000        708
  52.9000        645
  53.0000        550
  53.1000        523
  53.2000        412
  53.3000        374
  53.4000        366
  53.5000        255
  53.6000        251
  53.7000        228
  53.8000        224
  53.9000        261
  54.0000        238
  54.1000        229
  54.2000        237
  54.3000        233
  54.4000        225
  54.5000        217
  54.6000        246
  54.7000        213
  54.8000        224
  54.9000        212
  55.0000        223
  55.1000        237
  55.2000        240
  55.3000        226
  55.4000        221
  55.5000        236
  55.6000        255
  55.7000        216
  55.8000        234
  55.9000        228
  56.0000        248
  56.1000        232
  56.2000        230
  56.3000        241
  56.4000        246
  56.5000        225
  56.6000        226
  56.7000        224
  56.8000        244
  56.9000        214
  57.0000        205
  57.1000        214
  57.2000        236
  57.3000        249
  57.4000        241
  57.5000        249
  57.6000        234
  57.7000        242
  57.8000        238
  57.9000        244
  58.0000        245
  58.1000        224
  58.2000        204
  58.3000        247
  58.4000        246
  58.5000        252
  58.6000        265
  58.7000        260
  58.8000        236
  58.9000        246
  59.0000        239
  59.1000        248
  59.2000        240
  59.3000        246
  59.4000        243
  59.5000        245
  59.6000        250
  59.7000        252
  59.8000        267
  59.9000        217
  60.0000        269
  60.1000        262
  60.2000        290
  60.3000        232
  60.4000        237
  60.5000        236
  60.6000        231
  60.7000        268
  60.8000        220
  60.9000        225
  61.0000        265
  61.1000        248
  61.2000        239
  61.3000        222
  61.4000        228
  61.5000        246
  61.6000        229
  61.7000        230
  61.8000        278
  61.9000        246
  62.0000        243
  62.1000        228
  62.2000        234
  62.3000        237
  62.4000        246
  62.5000        225
  62.6000        224
  62.7000        248
  62.8000        217
  62.9000        240
  63.0000        240
  63.1000        275
  63.2000        217
  63.3000        229
  63.4000        261
  63.5000        266
  63.6000        260
  63.7000        247
  63.8000        226
  63.9000        247
  64.0000        253
  64.1000        260
  64.2000        257
  64.3000        213
  64.4000        253
  64.5000        226
  64.6000        290
  64.7000        239
  64.8000        238
  64.9000        275
  65.0000        249
  65.1000        227
  65.2000        220
  65.3000        261
  65.4000        245
  65.5000        229
  65.6000        225
  65.7000        239
  65.8000        264
  65.9000        235
  66.0000        271
  66.1000        262
  66.2000        242
  66.3000        246
  66.4000        249
  66.5000        274
  66.6000        264
  66.7000        245
  66.8000        267
  66.9000        250
  67.0000        270
  67.1000        238
  67.2000        274
  67.3000        254
  67.4000        273
  67.5000        244
  67.6000        239
  67.7000        282
  67.8000        293
  67.9000        235
  68.0000        222
  68.1000        245
  68.2000        256
  68.3000        246
  68.4000        264
  68.5000        233
  68.6000        266
  68.7000        261
  68.8000        252
  68.9000        252
  69.0000        260
  69.1000        260
  69.2000        246
  69.3000        245
  69.4000        273
  69.5000        248
  69.6000        234
  69.7000        228
  69.8000        250
  69.9000        292
  70.0000        276
  70.1000        264
  70.2000        251
  70.3000        242
  70.4000        247
  70.5000        249
  70.6000        270
  70.7000        251
  70.8000        267
  70.9000        287
  71.0000        248
  71.1000        236
  71.2000        233
  71.3000        266
  71.4000        227
  71.5000        242
  71.6000        276
  71.7000        277
  71.8000        297
  71.9000        280
  72.0000        267
  72.1000        275
  72.2000        252
  72.3000        286
  72.4000        268
  72.5000        271
  72.6000        276
  72.7000        305
  72.8000        293
  72.9000        282
  73.0000        264
  73.1000        267
  73.2000        277
  73.3000        249
  73.4000        284
  73.5000        260
  73.6000        278
  73.7000        242
  73.8000        264
  73.9000        270
  74.0000        259
  74.1000        259
  74.2000        281
  74.3000        299
  74.4000        259
  74.5000        287
  74.6000        295
  74.7000        260
  74.8000        288
  74.9000        253
  75.0000        291
  75.1000        296
  75.2000        292
  75.3000        308
  75.4000        273
  75.5000        315
  75.6000        267
  75.7000        301
  75.8000        257
  75.9000        303
  76.0000        289
  76.1000        270
  76.2000        313
  76.3000        310
  76.4000        271
  76.5000        284
  76.6000        333
  76.7000        354
  76.8000        320
  76.9000        356
  77.0000        324
  77.1000        325
  77.2000        361
  77.3000        313
  77.4000        294
  77.5000        299
  77.6000        282
  77.7000        319
  77.8000        316
  77.9000        312
  78.0000        285
  78.1000        302
  78.2000        290
  78.3000        301
  78.4000        305
  78.5000        293
  78.6000        289
  78.7000        299
  78.8000        272
  78.9000        299
  79.0000        265
  79.1000        293
  79.2000        288
  79.3000        247
  79.4000        284
  79.5000        315
  79.6000        275
  79.7000        303
  79.8000        294
  79.9000        269
  80.0000        265
  80.1000        312
  80.2000        265
  80.3000        320
  80.4000        308
  80.5000        282
  80.6000        278
  80.7000        296
  80.8000        292
  80.9000        323
  81.0000        275
  81.1000        310
  81.2000        298
  81.3000        273
  81.4000        298
  81.5000        272
  81.6000        321
  81.7000        322
  81.8000        313
  81.9000        320
  82.0000        297
  82.1000        287
  82.2000        334
  82.3000        307
  82.4000        303
  82.5000        313
  82.6000        332
  82.7000        288
  82.8000        294
  82.9000        303
  83.0000        306
  83.1000        304
  83.2000        292
  83.3000        281
  83.4000        322
  83.5000        311
  83.6000        305
  83.7000        365
  83.8000        306
  83.9000        313
  84.0000        298
  84.1000        335
  84.2000        331
  84.3000        311
  84.4000        290
  84.5000        281
  84.6000        306
  84.7000        295
  84.8000        305
  84.9000        277
  85.0000        324
  85.1000        312
  85.2000        296
  85.3000        326
  85.4000        296
  85.5000        308
  85.6000        336
  85.7000        310
  85.8000        311
  85.9000        316
  86.0000        310
  86.1000        299
  86.2000        303
  86.3000        276
  86.4000        316
  86.5000        287
  86.6000        304
  86.7000        269
  86.8000        311
  86.9000        312
  87.0000        336
  87.1000        312
  87.2000        288
  87.3000        295
  87.4000        343
  87.5000        346
  87.6000        277
  87.7000        315
  87.8000        305
  87.9000        305
  88.0000        303
  88.1000        314
  88.2000        322
  88.3000        328
  88.4000        289
  88.5000        322
  88.6000        298
  88.7000        365
  88.8000        331
  88.9000        336
  89.0000        344
  89.1000        347
  89.2000        337
  89.3000        332
  89.4000        361
  89.5000        323
  89.6000        329
  89.7000        316
  89.8000        314
  89.9000        320
  90.0000        327
  90.1000        347
  90.2000        328
  90.3000        351
  90.4000        320
  90.5000        332
  90.6000        333
  90.7000        311
  90.8000        324
  90.9000        286
  91.0000        331
  91.1000        339
  91.2000        331
  91.3000        289
  91.4000        319
  91.5000        342
  91.6000        311
  91.7000        313
  91.8000        350
  91.9000        370
  92.0000        341
  92.1000        323
  92.2000        311
  92.3000        341
  92.4000        309
  92.5000        325
  92.6000        349
  92.7000        357
  92.8000        351
  92.9000        327
  93.0000        320
  93.1000        325
  93.2000        347
  93.3000        318
  93.4000        356
  93.5000        348
  93.6000        340
  93.7000        355
  93.8000        346
  93.9000        363
  94.0000        341
  94.1000        346
  94.2000        364
  94.3000        342
  94.4000        332
  94.5000        328
  94.6000        358
  94.7000        328
  94.8000        356
  94.9000        370
  95.0000        327
  95.1000        320
  95.2000        325
  95.3000        337
  95.4000        335
  95.5000        330
  95.6000        348
  95.7000        310
  95.8000        343
  95.9000        374
  96.0000        324
  96.1000        359
  96.2000        355
  96.3000        351
  96.4000        326
  96.5000        387
  96.6000        333
  96.7000        323
  96.8000        367
  96.9000        308
  97.0000        354
  97.1000        359
  97.2000        356
  97.3000        351
  97.4000        340
  97.5000        390
  97.6000        371
  97.7000        367
  97.8000        433
  97.9000        405
  98.0000        397
  98.1000        385
  98.2000        427
  98.3000        491
  98.4000        486
  98.5000        494
  98.6000        492
  98.7000        555
  98.8000        558
  98.9000        526
  99.0000        612
  99.1000        602
  99.2000        577
  99.3000        596
  99.4000        588
  99.5000        565
  99.6000        604
  99.7000        555
  99.8000        543
  99.9000        496
 100.0000        486
 100.1000        497
 100.2000        445
 100.3000        421
 100.4000        416
 100.5000        385
 100.6000        382
 100.7000        389
 100.8000        407
 100.9000        390
 101.0000        378
 101.1000        365
 101.2000        358
 101.3000        361
 101.4000        393
 101.5000        368
 101.6000        370
 101.7000        362
 101.8000        367
 101.9000        383
 102.0000        325
 102.1000        364
 102.2000        366
 102.3000        375
 102.4000        349
 102.5000        383
 102.6000        372
 102.7000        355
 102.8000        387
 102.9000        358
 103.0000        356
 103.1000        355
 103.2000        398
 103.3000        369
 103.4000        395
 103.5000        378
 103.6000        338
 103.7000        382
 103.8000        385
 103.9000        364
 104.0000        371
 104.1000        349
 104.2000        384
 104.3000        353
 104.4000        377
 104.5000        369
 104.6000        381
 104.7000        346
 104.8000        400
 104.9000        339
 105.0000        355
 105.1000        368
 105.2000        352
 105.3000        403
 105.4000        395
 105.5000        404
 105.6000        362
 105.7000        388
 105.8000        371
 105.9000        390
 106.0000        369
 106.1000        425
 106.2000        327
 106.3000        387
 106.4000        387
 106.5000        393
 106.6000        366
 106.7000        378
 106.8000        418
 106.9000        363
 107.0000        397
 107.1000        391
 107.2000        374
 107.3000        371
 107.4000        361
 107.5000        370
 107.6000        406
 107.7000        392
 107.8000        378
 107.9000        380
 108.0000        371
 108.1000        383
 108.2000        361
 108.3000        366
 108.4000        424
 108.5000        371
 108.6000        390
 108.7000        411
 108.8000        379
 108.9000        441
 109.0000        372
 109.1000        384
 109.2000        376
 109.3000        385
 109.4000        398
 109.5000        386
 109.6000        375
 109.7000        388
 109.8000        381
 109.9000        394
 110.0000        353
 110.1000        370
 110.2000        434
 110.3000        389
 110.4000        429
 110.5000        413
 110.6000        384
 110.7000        445
 110.8000        416
 110.9000        428
 111.0000        431
 111.1000        438
 111.2000        400
 111.3000        410
 111.4000        422
 111.5000        431
 111.6000        408
 111.7000        417
 111.8000        381
 111.9000        437
 112.0000        419
 112.1000        397
 112.2000        401
 112.3000        417
 112.4000        417
 112.5000        436
 112.6000        369
 112.7000        400
 112.8000        441
 112.9000        389
 113.0000        405
 113.1000        372
 113.2000        419
 113.3000        402
 113.4000        392
 113.5000        396
 113.6000        373
 113.7000        409
 113.8000        374
 113.9000        370
 114.0000        394
 114.1000        430
 114.2000        396
 114.3000        376
 114.4000        387
 114.5000        417
 114.6000        435
 114.7000        388
 114.8000        376
 114.9000        425
 115.0000        398
 115.1000        410
 115.2000        358
 115.3000        394
 115.4000        357
 115.5000        401
 115.6000        384
 115.7000        399
 115.8000        399
 115.9000        400
 116.0000        396
 116.1000        376
 116.2000        403
 116.3000        407
 116.4000        377
 116.5000        359
 116.6000        411
 116.7000        421
 116.8000        397
 116.9000        400
 117.0000        409
 117.1000        385
 117.2000        409
 117.3000        385
 117.4000        417
 117.5000        413
 117.6000        426
 117.7000        407
 117.8000        410
 117.9000        419
 118.0000        435
 118.1000        411
 118.2000        413
 118.3000        401
 118.4000        401
 118.5000        407
 118.6000        406
 118.7000        381
 118.8000        401
 118.9000        407
 119.0000        400
 119.1000        423
 119.2000        417
 119.3000        404
 119.4000        418
 119.5000        398
 119.6000        456
 119.7000        403
 119.8000        380
 119.9000        407
 120.0000        380
 120.1000        424
 120.2000        396
 120.3000        392
 120.4000        401
 120.5000        423
 120.6000        396
 120.7000        412
 120.8000        391
 120.9000        418
 121.0000        392
 121.1000        465
 121.2000        415
 121.3000        424
 121.4000        420
 121.5000        413
 121.6000        400
 121.7000        446
 121.8000        449
 121.9000        435
 122.0000        420
 122.1000        478
 122.2000        486
 122.3000        418
 122.4000        494
 122.5000        491
 122.6000        462
 122.7000        540
 122.8000        558
 122.9000        517
 123.0000        566
 123.1000        563
 123.2000        607
 123.3000        610
 123.4000        589
 123.5000        547
 123.6000        562
 123.7000        522
 123.8000        551
 123.9000        485
 124.0000        473
 124.1000        404
 124.2000        444
 124.3000        434
 124.4000        431
 124.5000        436
 124.6000        410
 124.7000        478
 124.8000        400
 124.9000        409
 125.0000        439
 125.1000        419
 125.2000        426
 125.3000        394
 125.4000        419
 125.5000        431
 125.6000        397
 125.7000        422
 125.8000        406
 125.9000        448
 126.0000        406
 126.1000        417
 126.2000        410
 126.3000        386
 126.4000        417
 126.5000        422
 126.6000        424
 126.7000        426
 126.8000        421
 126.9000        421
 127.0000        432
 127.1000        387
 127.2000        424
 127.3000        432
 127.4000        442
 127.5000        411
 127.6000        399
 127.7000        426
 127.8000        444
 127.9000        396
 128.0000        407
 128.1000        402
 128.2000        399
 128.3000        388
 128.4000        427
 128.5000        430
 128.6000        415
 128.7000        406
 128.8000        419
 128.9000        438
 129.0000        439
 129.1000        414
 129.2000        404
 129.3000        411
 129.4000        405
 129.5000        389
 129.6000        439
 129.7000        396
 129.8000        411
 129.9000        404
 130.0000        426