File: exp_dat/old/exp_2013_11_11/13pct_20G.uxd
; (content of file C:\DIFFDAT1\GIFT\MDL\Seawoong Lee\20131104_MV8\equal_area_maxkhi080_n8_2th40_130_x25y25_20g.raw)
_FILEVERSION = 3
_SAMPLE =
_+SAMPLE =
_SITE = Korea
_USER = Admin
_GONIOMETER_CODE = 20
; Goniometer : D8 theta/2theta, stage : Unknown
_SAMPLE_CHANGER_CODE = 0
_ATTACHMENTS_CODE = 0
_GONIOMETER_RADIUS = 300
_FIXED_DIVSLIT = 1
_FIXED_SAMPLESLIT = 0
_SOLLER_SLITS = 2
_FIXED_DETSLIT = 0.1
_MONOCHROMATOR = 0
; Incident beam monochromator : None
_SOLLER_SLITS_2 = 2
_THIN_FILM = N
_BETA_FILTER = Y
_FIXED_ANTISLIT = 0.6
_ANALYZER_CODE = 0
; Received beam analyzer : None
_DATEMEASURED = "08-Nov-2013 18:43:09"
_WL_UNIT = A
_WL1 = 1.78897
_WL2 = 1.79285
_WL3 = 1.62079
_WLRATIO = 0.5
_ANODE = Co
_V4_INF_CREATOR = XRDWizard
_V4_INF_CREATOR_VERSION = V2.9.0.22
_V4_INF_WIZARD_VERSION = V2.9.0.22
_V4_INF_WIZARD_ADDINS = V2.9.0.22
_V4_INF_WIZARD_DOCTYPE = XRD
_V4_INF_OSUSER = Postech
_V4_INF_USER = Admin
_V4_INF_SITE = Korea

; Data for range 1
_DRIVE = COUPLED
_STEPTIME = 0.2
_STEPSIZE = 0.1
_STEPMODE = C
_START = 40
_THETA = 20
_2THETA = 40
_KHI = 0
_PHI = 0
_X = 25
_Y = 25
_Z = 0
_DETECTOR = 1
; Detector type : Scintillation counter
_HV = 687
_GAIN = 80
_LLD = 0.69
_ULD = 1.866
_DETECTORSLIT = unkn
_AUX1 = 0
_AUX2 = 0
_AUX3 = 0
_TIMESTARTED = 28
_TEMP_RATE = -1
_TEMP_DELAY = -1
_KV = 35
_MA = 40
_RANGE_WL = 1.78897
_3DPLANE = 0
_V4_ADDITIONALDETECTOR = 0
_V4_D8_DIBNUM = 1
_V4_DETECTORNAME = "Detector 1"
_V4_TTLDETECTOR = None
_V4_DETECTORTYPE = 1
_V4_DETECTORFLAGS = 524545
_V4_DETECTORHV = 687
_V4_DETECTORGAIN = 80
_V4_DETECTORLLD1 = 0.69
_V4_DETECTORWW1 = 1.176
_V4_DETECTORLLD2 = 0
_V4_DETECTORWW2 = 0
_V4_DETECTORPS = 0
_V4_DETECTORDT = 0
_V4_DETECTORPILEUPTIME = 0
_V4_COUNTERS_MASK = 1
_V4_DRIVES_MASK = 0
_V4_ENCODERS_MASK = 0
_2THETACOUNTS = 1
; 2THETA  Cnt1_D1
  40.0000        533
  40.1000        513
  40.2000        497
  40.3000        550
  40.4000        524
  40.5000        508
  40.6000        511
  40.7000        521
  40.8000        537
  40.9000        538
  41.0000        501
  41.1000        491
  41.2000        498
  41.3000        469
  41.4000        505
  41.5000        496
  41.6000        538
  41.7000        484
  41.8000        499
  41.9000        521
  42.0000        488
  42.1000        525
  42.2000        510
  42.3000        523
  42.4000        494
  42.5000        508
  42.6000        536
  42.7000        538
  42.8000        497
  42.9000        534
  43.0000        546
  43.1000        537
  43.2000        525
  43.3000        549
  43.4000        535
  43.5000        510
  43.6000        515
  43.7000        490
  43.8000        497
  43.9000        533
  44.0000        512
  44.1000        470
  44.2000        525
  44.3000        560
  44.4000        522
  44.5000        535
  44.6000        531
  44.7000        526
  44.8000        536
  44.9000        568
  45.0000        498
  45.1000        504
  45.2000        485
  45.3000        536
  45.4000        521
  45.5000        508
  45.6000        504
  45.7000        516
  45.8000        502
  45.9000        522
  46.0000        498
  46.1000        518
  46.2000        574
  46.3000        538
  46.4000        521
  46.5000        531
  46.6000        530
  46.7000        509
  46.8000        536
  46.9000        519
  47.0000        520
  47.1000        491
  47.2000        535
  47.3000        519
  47.4000        512
  47.5000        546
  47.6000        489
  47.7000        498
  47.8000        541
  47.9000        534
  48.0000        566
  48.1000        528
  48.2000        491
  48.3000        516
  48.4000        514
  48.5000        501
  48.6000        513
  48.7000        530
  48.8000        541
  48.9000        531
  49.0000        522
  49.1000        476
  49.2000        502
  49.3000        547
  49.4000        539
  49.5000        474
  49.6000        507
  49.7000        530
  49.8000        522
  49.9000        492
  50.0000        504
  50.1000        522
  50.2000        493
  50.3000        528
  50.4000        539
  50.5000        509
  50.6000        508
  50.7000        522
  50.8000        538
  50.9000        529
  51.0000        527
  51.1000        541
  51.2000        529
  51.3000        567
  51.4000        569
  51.5000        606
  51.6000        755
  51.7000        828
  51.8000        953
  51.9000       1032
  52.0000       1109
  52.1000       1050
  52.2000       1154
  52.3000       1076
  52.4000       1057
  52.5000        898
  52.6000        872
  52.7000        710
  52.8000        662
  52.9000        570
  53.0000        593
  53.1000        560
  53.2000        543
  53.3000        482
  53.4000        549
  53.5000        546
  53.6000        561
  53.7000        518
  53.8000        511
  53.9000        528
  54.0000        501
  54.1000        485
  54.2000        504
  54.3000        536
  54.4000        518
  54.5000        501
  54.6000        578
  54.7000        518
  54.8000        497
  54.9000        503
  55.0000        548
  55.1000        546
  55.2000        510
  55.3000        465
  55.4000        518
  55.5000        533
  55.6000        509
  55.7000        498
  55.8000        493
  55.9000        490
  56.0000        530
  56.1000        502
  56.2000        538
  56.3000        533
  56.4000        531
  56.5000        532
  56.6000        500
  56.7000        529
  56.8000        461
  56.9000        509
  57.0000        525
  57.1000        549
  57.2000        514
  57.3000        520
  57.4000        510
  57.5000        539
  57.6000        539
  57.7000        525
  57.8000        484
  57.9000        500
  58.0000        503
  58.1000        477
  58.2000        492
  58.3000        526
  58.4000        502
  58.5000        499
  58.6000        544
  58.7000        512
  58.8000        542
  58.9000        511
  59.0000        543
  59.1000        517
  59.2000        555
  59.3000        528
  59.4000        499
  59.5000        495
  59.6000        511
  59.7000        519
  59.8000        545
  59.9000        538
  60.0000        501
  60.1000        507
  60.2000        531
  60.3000        524
  60.4000        501
  60.5000        488
  60.6000        509
  60.7000        511
  60.8000        496
  60.9000        539
  61.0000        519
  61.1000        501
  61.2000        526
  61.3000        529
  61.4000        504
  61.5000        563
  61.6000        525
  61.7000        541
  61.8000        504
  61.9000        474
  62.0000        563
  62.1000        498
  62.2000        506
  62.3000        496
  62.4000        492
  62.5000        519
  62.6000        541
  62.7000        531
  62.8000        542
  62.9000        528
  63.0000        520
  63.1000        508
  63.2000        513
  63.3000        508
  63.4000        520
  63.5000        517
  63.6000        495
  63.7000        535
  63.8000        494
  63.9000        484
  64.0000        477
  64.1000        521
  64.2000        500
  64.3000        529
  64.4000        514
  64.5000        511
  64.6000        520
  64.7000        512
  64.8000        539
  64.9000        504
  65.0000        534
  65.1000        532
  65.2000        471
  65.3000        510
  65.4000        487
  65.5000        493
  65.6000        555
  65.7000        466
  65.8000        504
  65.9000        516
  66.0000        477
  66.1000        520
  66.2000        484
  66.3000        506
  66.4000        513
  66.5000        525
  66.6000        489
  66.7000        522
  66.8000        490
  66.9000        491
  67.0000        489
  67.1000        518
  67.2000        489
  67.3000        531
  67.4000        532
  67.5000        494
  67.6000        463
  67.7000        482
  67.8000        492
  67.9000        477
  68.0000        540
  68.1000        552
  68.2000        508
  68.3000        533
  68.4000        531
  68.5000        525
  68.6000        544
  68.7000        529
  68.8000        506
  68.9000        491
  69.0000        518
  69.1000        522
  69.2000        508
  69.3000        509
  69.4000        496
  69.5000        490
  69.6000        515
  69.7000        515
  69.8000        468
  69.9000        492
  70.0000        504
  70.1000        549
  70.2000        468
  70.3000        519
  70.4000        493
  70.5000        539
  70.6000        549
  70.7000        519
  70.8000        464
  70.9000        493
  71.0000        544
  71.1000        503
  71.2000        517
  71.3000        489
  71.4000        516
  71.5000        507
  71.6000        497
  71.7000        477
  71.8000        495
  71.9000        513
  72.0000        522
  72.1000        509
  72.2000        530
  72.3000        472
  72.4000        515
  72.5000        503
  72.6000        501
  72.7000        488
  72.8000        509
  72.9000        477
  73.0000        506
  73.1000        470
  73.2000        520
  73.3000        469
  73.4000        541
  73.5000        503
  73.6000        494
  73.7000        486
  73.8000        547
  73.9000        483
  74.0000        500
  74.1000        515
  74.2000        539
  74.3000        490
  74.4000        501
  74.5000        488
  74.6000        522
  74.7000        489
  74.8000        480
  74.9000        553
  75.0000        532
  75.1000        548
  75.2000        522
  75.3000        554
  75.4000        525
  75.5000        547
  75.6000        538
  75.7000        572
  75.8000        567
  75.9000        597
  76.0000        660
  76.1000        685
  76.2000        858
  76.3000        954
  76.4000       1066
  76.5000       1169
  76.6000       1186
  76.7000       1282
  76.8000       1267
  76.9000       1240
  77.0000       1195
  77.1000       1153
  77.2000       1000
  77.3000        858
  77.4000        755
  77.5000        681
  77.6000        626
  77.7000        627
  77.8000        609
  77.9000        582
  78.0000        562
  78.1000        544
  78.2000        521
  78.3000        534
  78.4000        469
  78.5000        539
  78.6000        554
  78.7000        490
  78.8000        530
  78.9000        504
  79.0000        542
  79.1000        505
  79.2000        506
  79.3000        496
  79.4000        522
  79.5000        505
  79.6000        486
  79.7000        524
  79.8000        512
  79.9000        485
  80.0000        483
  80.1000        547
  80.2000        530
  80.3000        522
  80.4000        538
  80.5000        484
  80.6000        474
  80.7000        516
  80.8000        489
  80.9000        488
  81.0000        476
  81.1000        487
  81.2000        526
  81.3000        479
  81.4000        578
  81.5000        524
  81.6000        517
  81.7000        532
  81.8000        506
  81.9000        509
  82.0000        538
  82.1000        522
  82.2000        518
  82.3000        514
  82.4000        534
  82.5000        480
  82.6000        504
  82.7000        537
  82.8000        503
  82.9000        474
  83.0000        524
  83.1000        531
  83.2000        495
  83.3000        496
  83.4000        491
  83.5000        488
  83.6000        556
  83.7000        491
  83.8000        506
  83.9000        502
  84.0000        507
  84.1000        523
  84.2000        514
  84.3000        479
  84.4000        481
  84.5000        509
  84.6000        501
  84.7000        538
  84.8000        515
  84.9000        504
  85.0000        536
  85.1000        486
  85.2000        512
  85.3000        535
  85.4000        491
  85.5000        479
  85.6000        520
  85.7000        496
  85.8000        512
  85.9000        525
  86.0000        524
  86.1000        530
  86.2000        555
  86.3000        514
  86.4000        524
  86.5000        484
  86.6000        532
  86.7000        490
  86.8000        528
  86.9000        501
  87.0000        487
  87.1000        514
  87.2000        512
  87.3000        511
  87.4000        510
  87.5000        508
  87.6000        527
  87.7000        474
  87.8000        478
  87.9000        491
  88.0000        504
  88.1000        514
  88.2000        489
  88.3000        467
  88.4000        506
  88.5000        536
  88.6000        542
  88.7000        517
  88.8000        502
  88.9000        522
  89.0000        504
  89.1000        531
  89.2000        493
  89.3000        520
  89.4000        551
  89.5000        485
  89.6000        552
  89.7000        515
  89.8000        532
  89.9000        510
  90.0000        465
  90.1000        532
  90.2000        537
  90.3000        496
  90.4000        527
  90.5000        514
  90.6000        519
  90.7000        515
  90.8000        521
  90.9000        525
  91.0000        503
  91.1000        518
  91.2000        527
  91.3000        516
  91.4000        509
  91.5000        501
  91.6000        547
  91.7000        546
  91.8000        512
  91.9000        482
  92.0000        474
  92.1000        532
  92.2000        507
  92.3000        509
  92.4000        525
  92.5000        479
  92.6000        539
  92.7000        485
  92.8000        457
  92.9000        480
  93.0000        498
  93.1000        492
  93.2000        480
  93.3000        520
  93.4000        535
  93.5000        494
  93.6000        510
  93.7000        488
  93.8000        555
  93.9000        513
  94.0000        504
  94.1000        509
  94.2000        483
  94.3000        455
  94.4000        553
  94.5000        484
  94.6000        510
  94.7000        497
  94.8000        501
  94.9000        494
  95.0000        490
  95.1000        511
  95.2000        475
  95.3000        494
  95.4000        513
  95.5000        507
  95.6000        482
  95.7000        563
  95.8000        503
  95.9000        500
  96.0000        521
  96.1000        512
  96.2000        528
  96.3000        499
  96.4000        510
  96.5000        540
  96.6000        502
  96.7000        483
  96.8000        493
  96.9000        534
  97.0000        486
  97.1000        547
  97.2000        513
  97.3000        497
  97.4000        538
  97.5000        545
  97.6000        532
  97.7000        526
  97.8000        542
  97.9000        548
  98.0000        570
  98.1000        594
  98.2000        581
  98.3000        632
  98.4000        684
  98.5000        821
  98.6000        885
  98.7000       1068
  98.8000       1204
  98.9000       1415
  99.0000       1551
  99.1000       1579
  99.2000       1711
  99.3000       1634
  99.4000       1578
  99.5000       1592
  99.6000       1384
  99.7000       1260
  99.8000       1132
  99.9000        926
 100.0000        760
 100.1000        726
 100.2000        666
 100.3000        595
 100.4000        587
 100.5000        615
 100.6000        573
 100.7000        558
 100.8000        550
 100.9000        500
 101.0000        545
 101.1000        566
 101.2000        538
 101.3000        527
 101.4000        502
 101.5000        510
 101.6000        550
 101.7000        547
 101.8000        534
 101.9000        519
 102.0000        509
 102.1000        478
 102.2000        559
 102.3000        525
 102.4000        542
 102.5000        515
 102.6000        536
 102.7000        535
 102.8000        527
 102.9000        528
 103.0000        493
 103.1000        515
 103.2000        545
 103.3000        515
 103.4000        574
 103.5000        532
 103.6000        528
 103.7000        483
 103.8000        536
 103.9000        514
 104.0000        485
 104.1000        533
 104.2000        503
 104.3000        541
 104.4000        516
 104.5000        518
 104.6000        545
 104.7000        516
 104.8000        530
 104.9000        526
 105.0000        462
 105.1000        499
 105.2000        497
 105.3000        486
 105.4000        541
 105.5000        487
 105.6000        496
 105.7000        507
 105.8000        530
 105.9000        524
 106.0000        503
 106.1000        498
 106.2000        525
 106.3000        511
 106.4000        515
 106.5000        510
 106.6000        507
 106.7000        490
 106.8000        526
 106.9000        532
 107.0000        507
 107.1000        474
 107.2000        488
 107.3000        516
 107.4000        504
 107.5000        521
 107.6000        547
 107.7000        534
 107.8000        508
 107.9000        548
 108.0000        513
 108.1000        500
 108.2000        509
 108.3000        518
 108.4000        531
 108.5000        478
 108.6000        524
 108.7000        551
 108.8000        529
 108.9000        504
 109.0000        546
 109.1000        483
 109.2000        554
 109.3000        508
 109.4000        577
 109.5000        481
 109.6000        499
 109.7000        475
 109.8000        529
 109.9000        517
 110.0000        497
 110.1000        516
 110.2000        502
 110.3000        514
 110.4000        465
 110.5000        490
 110.6000        495
 110.7000        540
 110.8000        535
 110.9000        526
 111.0000        494
 111.1000        493
 111.2000        451
 111.3000        522
 111.4000        510
 111.5000        515
 111.6000        486
 111.7000        475
 111.8000        504
 111.9000        532
 112.0000        502
 112.1000        495
 112.2000        456
 112.3000        506
 112.4000        471
 112.5000        518
 112.6000        606
 112.7000        522
 112.8000        475
 112.9000        525
 113.0000        497
 113.1000        494
 113.2000        503
 113.3000        548
 113.4000        517
 113.5000        537
 113.6000        501
 113.7000        511
 113.8000        500
 113.9000        496
 114.0000        495
 114.1000        521
 114.2000        507
 114.3000        481
 114.4000        514
 114.5000        506
 114.6000        498
 114.7000        508
 114.8000        497
 114.9000        480
 115.0000        466
 115.1000        500
 115.2000        488
 115.3000        521
 115.4000        526
 115.5000        499
 115.6000        489
 115.7000        482
 115.8000        479
 115.9000        500
 116.0000        551
 116.1000        482
 116.2000        483
 116.3000        496
 116.4000        469
 116.5000        507
 116.6000        559
 116.7000        563
 116.8000        501
 116.9000        508
 117.0000        477
 117.1000        531
 117.2000        543
 117.3000        488
 117.4000        515
 117.5000        504
 117.6000        474
 117.7000        467
 117.8000        506
 117.9000        529
 118.0000        556
 118.1000        543
 118.2000        532
 118.3000        504
 118.4000        562
 118.5000        510
 118.6000        498
 118.7000        544
 118.8000        486
 118.9000        535
 119.0000        468
 119.1000        529
 119.2000        520
 119.3000        526
 119.4000        505
 119.5000        507
 119.6000        505
 119.7000        527
 119.8000        531
 119.9000        481
 120.0000        539
 120.1000        478
 120.2000        534
 120.3000        531
 120.4000        501
 120.5000        499
 120.6000        543
 120.7000        524
 120.8000        537
 120.9000        529
 121.0000        536
 121.1000        488
 121.2000        492
 121.3000        533
 121.4000        504
 121.5000        524
 121.6000        501
 121.7000        481
 121.8000        525
 121.9000        525
 122.0000        483
 122.1000        489
 122.2000        491
 122.3000        535
 122.4000        526
 122.5000        518
 122.6000        533
 122.7000        551
 122.8000        527
 122.9000        552
 123.0000        539
 123.1000        535
 123.2000        575
 123.3000        587
 123.4000        540
 123.5000        528
 123.6000        543
 123.7000        554
 123.8000        579
 123.9000        536
 124.0000        503
 124.1000        531
 124.2000        506
 124.3000        539
 124.4000        549
 124.5000        517
 124.6000        537
 124.7000        537
 124.8000        512
 124.9000        529
 125.0000        502
 125.1000        537
 125.2000        549
 125.3000        494
 125.4000        512
 125.5000        478
 125.6000        476
 125.7000        534
 125.8000        506
 125.9000        524
 126.0000        500
 126.1000        487
 126.2000        501
 126.3000        491
 126.4000        470
 126.5000        477
 126.6000        533
 126.7000        484
 126.8000        482
 126.9000        529
 127.0000        502
 127.1000        546
 127.2000        500
 127.3000        508
 127.4000        498
 127.5000        519
 127.6000        488
 127.7000        519
 127.8000        534
 127.9000        500
 128.0000        482
 128.1000        494
 128.2000        486
 128.3000        510
 128.4000        513
 128.5000        506
 128.6000        518
 128.7000        573
 128.8000        534
 128.9000        508
 129.0000        485
 129.1000        492
 129.2000        502
 129.3000        466
 129.4000        502
 129.5000        513
 129.6000        515
 129.7000        510
 129.8000        512
 129.9000        497
 130.0000        511

; Data for range 2
_DRIVE = COUPLED
_STEPTIME = 0.2
_STEPSIZE = 0.1
_STEPMODE = C
_START = 40
_THETA = 20
_2THETA = 40
_KHI = 10.5
_PHI = 60
_X = 25
_Y = 25
_Z = 0
_DETECTOR = 1
; Detector type : Scintillation counter
_HV = 687
_GAIN = 80
_LLD = 0.69
_ULD = 1.866
_DETECTORSLIT = unkn
_AUX1 = 0
_AUX2 = 0
_AUX3 = 0
_TIMESTARTED = 225
_TEMP_RATE = -1
_TEMP_DELAY = -1
_KV = 35
_MA = 40
_RANGE_WL = 1.78897
_3DPLANE = 0
_V4_ADDITIONALDETECTOR = 0
_V4_D8_DIBNUM = 1
_V4_DETECTORNAME = "Detector 1"
_V4_TTLDETECTOR = None
_V4_DETECTORTYPE = 1
_V4_DETECTORFLAGS = 524545
_V4_DETECTORHV = 687
_V4_DETECTORGAIN = 80
_V4_DETECTORLLD1 = 0.69
_V4_DETECTORWW1 = 1.176
_V4_DETECTORLLD2 = 0
_V4_DETECTORWW2 = 0
_V4_DETECTORPS = 0
_V4_DETECTORDT = 0
_V4_DETECTORPILEUPTIME = 0
_V4_COUNTERS_MASK = 1
_V4_DRIVES_MASK = 0
_V4_ENCODERS_MASK = 0
_2THETACOUNTS = 1
; 2THETA  Cnt1_D1
  40.0000        520
  40.1000        551
  40.2000        527
  40.3000        544
  40.4000        530
  40.5000        562
  40.6000        491
  40.7000        517
  40.8000        512
  40.9000        549
  41.0000        533
  41.1000        539
  41.2000        554
  41.3000        523
  41.4000        521
  41.5000        559
  41.6000        497
  41.7000        539
  41.8000        564
  41.9000        544
  42.0000        503
  42.1000        583
  42.2000        550
  42.3000        543
  42.4000        470
  42.5000        503
  42.6000        570
  42.7000        565
  42.8000        547
  42.9000        516
  43.0000        559
  43.1000        541
  43.2000        514
  43.3000        537
  43.4000        551
  43.5000        535
  43.6000        539
  43.7000        582
  43.8000        533
  43.9000        540
  44.0000        542
  44.1000        565
  44.2000        524
  44.3000        495
  44.4000        562
  44.5000        547
  44.6000        504
  44.7000        548
  44.8000        547
  44.9000        545
  45.0000        524
  45.1000        524
  45.2000        553
  45.3000        553
  45.4000        533
  45.5000        481
  45.6000        562
  45.7000        519
  45.8000        549
  45.9000        516
  46.0000        532
  46.1000        540
  46.2000        561
  46.3000        507
  46.4000        537
  46.5000        519
  46.6000        522
  46.7000        531
  46.8000        512
  46.9000        576
  47.0000        504
  47.1000        561
  47.2000        546
  47.3000        575
  47.4000        552
  47.5000        543
  47.6000        488
  47.7000        564
  47.8000        515
  47.9000        547
  48.0000        535
  48.1000        557
  48.2000        541
  48.3000        546
  48.4000        578
  48.5000        503
  48.6000        542
  48.7000        496
  48.8000        535
  48.9000        504
  49.0000        522
  49.1000        576
  49.2000        505
  49.3000        525
  49.4000        521
  49.5000        549
  49.6000        571
  49.7000        536
  49.8000        537
  49.9000        537
  50.0000        528
  50.1000        535
  50.2000        493
  50.3000        557
  50.4000        512
  50.5000        535
  50.6000        523
  50.7000        569
  50.8000        526
  50.9000        558
  51.0000        542
  51.1000        554
  51.2000        581
  51.3000        611
  51.4000        632
  51.5000        745
  51.6000        906
  51.7000        967
  51.8000       1209
  51.9000       1376
  52.0000       1384
  52.1000       1330
  52.2000       1316
  52.3000       1330
  52.4000       1266
  52.5000       1130
  52.6000        964
  52.7000        787
  52.8000        659
  52.9000        634
  53.0000        571
  53.1000        584
  53.2000        527
  53.3000        564
  53.4000        573
  53.5000        531
  53.6000        518
  53.7000        493
  53.8000        533
  53.9000        565
  54.0000        496
  54.1000        533
  54.2000        559
  54.3000        536
  54.4000        564
  54.5000        534
  54.6000        550
  54.7000        537
  54.8000        535
  54.9000        514
  55.0000        529
  55.1000        508
  55.2000        515
  55.3000        547
  55.4000        554
  55.5000        527
  55.6000        514
  55.7000        507
  55.8000        545
  55.9000        510
  56.0000        531
  56.1000        543
  56.2000        530
  56.3000        498
  56.4000        516
  56.5000        551
  56.6000        541
  56.7000        502
  56.8000        498
  56.9000        532
  57.0000        527
  57.1000        536
  57.2000        516
  57.3000        533
  57.4000        548
  57.5000        507
  57.6000        570
  57.7000        521
  57.8000        506
  57.9000        548
  58.0000        569
  58.1000        507
  58.2000        523
  58.3000        538
  58.4000        512
  58.5000        512
  58.6000        541
  58.7000        519
  58.8000        529
  58.9000        536
  59.0000        515
  59.1000        500
  59.2000        516
  59.3000        538
  59.4000        537
  59.5000        524
  59.6000        483
  59.7000        514
  59.8000        532
  59.9000        503
  60.0000        545
  60.1000        508
  60.2000        501
  60.3000        519
  60.4000        514
  60.5000        478
  60.6000        531
  60.7000        520
  60.8000        519
  60.9000        498
  61.0000        502
  61.1000        501
  61.2000        542
  61.3000        542
  61.4000        525
  61.5000        572
  61.6000        513
  61.7000        476
  61.8000        556
  61.9000        522
  62.0000        563
  62.1000        549
  62.2000        506
  62.3000        491
  62.4000        496
  62.5000        517
  62.6000        519
  62.7000        538
  62.8000        516
  62.9000        510
  63.0000        543
  63.1000        505
  63.2000        541
  63.3000        489
  63.4000        489
  63.5000        482
  63.6000        492
  63.7000        524
  63.8000        501
  63.9000        473
  64.0000        576
  64.1000        536
  64.2000        513
  64.3000        496
  64.4000        512
  64.5000        486
  64.6000        525
  64.7000        524
  64.8000        500
  64.9000        516
  65.0000        491
  65.1000        485
  65.2000        529
  65.3000        533
  65.4000        526
  65.5000        474
  65.6000        518
  65.7000        477
  65.8000        502
  65.9000        548
  66.0000        499
  66.1000        523
  66.2000        539
  66.3000        507
  66.4000        506
  66.5000        491
  66.6000        515
  66.7000        512
  66.8000        490
  66.9000        516
  67.0000        524
  67.1000        527
  67.2000        549
  67.3000        527
  67.4000        564
  67.5000        500
  67.6000        509
  67.7000        504
  67.8000        502
  67.9000        503
  68.0000        526
  68.1000        503
  68.2000        507
  68.3000        508
  68.4000        497
  68.5000        513
  68.6000        514
  68.7000        504
  68.8000        524
  68.9000        535
  69.0000        536
  69.1000        486
  69.2000        568
  69.3000        548
  69.4000        505
  69.5000        520
  69.6000        486
  69.7000        516
  69.8000        564
  69.9000        501
  70.0000        517
  70.1000        466
  70.2000        524
  70.3000        497
  70.4000        488
  70.5000        527
  70.6000        497
  70.7000        508
  70.8000        492
  70.9000        500
  71.0000        474
  71.1000        541
  71.2000        529
  71.3000        509
  71.4000        542
  71.5000        517
  71.6000        466
  71.7000        552
  71.8000        516
  71.9000        478
  72.0000        496
  72.1000        499
  72.2000        533
  72.3000        530
  72.4000        540
  72.5000        525
  72.6000        486
  72.7000        471
  72.8000        489
  72.9000        482
  73.0000        512
  73.1000        508
  73.2000        560
  73.3000        515
  73.4000        540
  73.5000        474
  73.6000        534
  73.7000        481
  73.8000        477
  73.9000        525
  74.0000        472
  74.1000        524
  74.2000        527
  74.3000        513
  74.4000        504
  74.5000        527
  74.6000        540
  74.7000        511
  74.8000        497
  74.9000        496
  75.0000        511
  75.1000        525
  75.2000        521
  75.3000        522
  75.4000        506
  75.5000        541
  75.6000        513
  75.7000        515
  75.8000        537
  75.9000        559
  76.0000        553
  76.1000        591
  76.2000        618
  76.3000        659
  76.4000        651
  76.5000        727
  76.6000        674
  76.7000        742
  76.8000        711
  76.9000        720
  77.0000        717
  77.1000        694
  77.2000        687
  77.3000        668
  77.4000        606
  77.5000        542
  77.6000        556
  77.7000        602
  77.8000        551
  77.9000        571
  78.0000        524
  78.1000        490
  78.2000        534
  78.3000        523
  78.4000        518
  78.5000        482
  78.6000        510
  78.7000        507
  78.8000        483
  78.9000        521
  79.0000        526
  79.1000        512
  79.2000        504
  79.3000        520
  79.4000        515
  79.5000        549
  79.6000        503
  79.7000        515
  79.8000        507
  79.9000        534
  80.0000        497
  80.1000        481
  80.2000        491
  80.3000        556
  80.4000        525
  80.5000        510
  80.6000        543
  80.7000        503
  80.8000        520
  80.9000        525
  81.0000        491
  81.1000        556
  81.2000        503
  81.3000        494
  81.4000        491
  81.5000        507
  81.6000        505
  81.7000        549
  81.8000        501
  81.9000        535
  82.0000        537
  82.1000        484
  82.2000        545
  82.3000        513
  82.4000        527
  82.5000        464
  82.6000        528
  82.7000        505
  82.8000        513
  82.9000        518
  83.0000        495
  83.1000        481
  83.2000        486
  83.3000        538
  83.4000        515
  83.5000        526
  83.6000        488
  83.7000        509
  83.8000        495
  83.9000        528
  84.0000        510
  84.1000        543
  84.2000        482
  84.3000        492
  84.4000        531
  84.5000        507
  84.6000        500
  84.7000        516
  84.8000        508
  84.9000        480
  85.0000        529
  85.1000        501
  85.2000        510
  85.3000        487
  85.4000        507
  85.5000        497
  85.6000        503
  85.7000        521
  85.8000        504
  85.9000        472
  86.0000        543
  86.1000        491
  86.2000        520
  86.3000        519
  86.4000        530
  86.5000        517
  86.6000        516
  86.7000        490
  86.8000        525
  86.9000        524
  87.0000        546
  87.1000        482
  87.2000        468
  87.3000        546
  87.4000        526
  87.5000        494
  87.6000        489
  87.7000        516
  87.8000        483
  87.9000        497
  88.0000        492
  88.1000        543
  88.2000        517
  88.3000        533
  88.4000        497
  88.5000        535
  88.6000        526
  88.7000        513
  88.8000        518
  88.9000        539
  89.0000        491
  89.1000        511
  89.2000        501
  89.3000        493
  89.4000        547
  89.5000        502
  89.6000        542
  89.7000        522
  89.8000        488
  89.9000        508
  90.0000        475
  90.1000        528
  90.2000        549
  90.3000        494
  90.4000        503
  90.5000        521
  90.6000        527
  90.7000        512
  90.8000        548
  90.9000        497
  91.0000        525
  91.1000        491
  91.2000        533
  91.3000        511
  91.4000        485
  91.5000        519
  91.6000        522
  91.7000        502
  91.8000        505
  91.9000        524
  92.0000        478
  92.1000        495
  92.2000        569
  92.3000        520
  92.4000        486
  92.5000        513
  92.6000        493
  92.7000        502
  92.8000        519
  92.9000        498
  93.0000        478
  93.1000        508
  93.2000        505
  93.3000        536
  93.4000        536
  93.5000        451
  93.6000        518
  93.7000        529
  93.8000        493
  93.9000        500
  94.0000        509
  94.1000        513
  94.2000        554
  94.3000        544
  94.4000        472
  94.5000        490
  94.6000        543
  94.7000        512
  94.8000        499
  94.9000        472
  95.0000        482
  95.1000        492
  95.2000        527
  95.3000        528
  95.4000        538
  95.5000        541
  95.6000        522
  95.7000        486
  95.8000        515
  95.9000        523
  96.0000        544
  96.1000        506
  96.2000        555
  96.3000        560
  96.4000        528
  96.5000        511
  96.6000        479
  96.7000        517
  96.8000        524
  96.9000        487
  97.0000        552
  97.1000        512
  97.2000        522
  97.3000        510
  97.4000        530
  97.5000        553
  97.6000        552
  97.7000        566
  97.8000        501
  97.9000        509
  98.0000        565
  98.1000        535
  98.2000        548
  98.3000        582
  98.4000        588
  98.5000        574
  98.6000        635
  98.7000        709
  98.8000        807
  98.9000        812
  99.0000        804
  99.1000       1012
  99.2000        977
  99.3000        993
  99.4000        943
  99.5000        921
  99.6000        861
  99.7000        855
  99.8000        706
  99.9000        707
 100.0000        664
 100.1000        589
 100.2000        569
 100.3000        562
 100.4000        499
 100.5000        547
 100.6000        507
 100.7000        557
 100.8000        528
 100.9000        485
 101.0000        508
 101.1000        526
 101.2000        479
 101.3000        501
 101.4000        536
 101.5000        546
 101.6000        519
 101.7000        496
 101.8000        521
 101.9000        476
 102.0000        500
 102.1000        540
 102.2000        519
 102.3000        515
 102.4000        512
 102.5000        497
 102.6000        510
 102.7000        540
 102.8000        518
 102.9000        502
 103.0000        554
 103.1000        502
 103.2000        500
 103.3000        527
 103.4000        528
 103.5000        501
 103.6000        496
 103.7000        554
 103.8000        514
 103.9000        503
 104.0000        508
 104.1000        518
 104.2000        525
 104.3000        515
 104.4000        517
 104.5000        525
 104.6000        487
 104.7000        522
 104.8000        507
 104.9000        534
 105.0000        548
 105.1000        497
 105.2000        497
 105.3000        521
 105.4000        521
 105.5000        499
 105.6000        522
 105.7000        548
 105.8000        521
 105.9000        519
 106.0000        526
 106.1000        528
 106.2000        490
 106.3000        530
 106.4000        519
 106.5000        519
 106.6000        522
 106.7000        505
 106.8000        507
 106.9000        494
 107.0000        504
 107.1000        493
 107.2000        548
 107.3000        500
 107.4000        505
 107.5000        569
 107.6000        518
 107.7000        502
 107.8000        535
 107.9000        529
 108.0000        468
 108.1000        512
 108.2000        470
 108.3000        508
 108.4000        506
 108.5000        459
 108.6000        564
 108.7000        507
 108.8000        515
 108.9000        542
 109.0000        531
 109.1000        501
 109.2000        471
 109.3000        553
 109.4000        524
 109.5000        451
 109.6000        492
 109.7000        506
 109.8000        474
 109.9000        506
 110.0000        538
 110.1000        554
 110.2000        540
 110.3000        492
 110.4000        481
 110.5000        527
 110.6000        528
 110.7000        544
 110.8000        504
 110.9000        549
 111.0000        511
 111.1000        487
 111.2000        504
 111.3000        535
 111.4000        548
 111.5000        522
 111.6000        548
 111.7000        530
 111.8000        555
 111.9000        471
 112.0000        505
 112.1000        518
 112.2000        528
 112.3000        522
 112.4000        521
 112.5000        474
 112.6000        499
 112.7000        475
 112.8000        475
 112.9000        500
 113.0000        505
 113.1000        499
 113.2000        492
 113.3000        505
 113.4000        503
 113.5000        502
 113.6000        483
 113.7000        512
 113.8000        481
 113.9000        518
 114.0000        512
 114.1000        526
 114.2000        526
 114.3000        453
 114.4000        485
 114.5000        537
 114.6000        537
 114.7000        529
 114.8000        507
 114.9000        499
 115.0000        468
 115.1000        527
 115.2000        504
 115.3000        514
 115.4000        503
 115.5000        516
 115.6000        554
 115.7000        517
 115.8000        530
 115.9000        507
 116.0000        471
 116.1000        513
 116.2000        498
 116.3000        512
 116.4000        520
 116.5000        512
 116.6000        504
 116.7000        530
 116.8000        496
 116.9000        520
 117.0000        536
 117.1000        512
 117.2000        491
 117.3000        527
 117.4000        519
 117.5000        478
 117.6000        512
 117.7000        509
 117.8000        504
 117.9000        517
 118.0000        479
 118.1000        518
 118.2000        501
 118.3000        486
 118.4000        508
 118.5000        476
 118.6000        506
 118.7000        498
 118.8000        479
 118.9000        505
 119.0000        515
 119.1000        492
 119.2000        526
 119.3000        485
 119.4000        484
 119.5000        522
 119.6000        511
 119.7000        525
 119.8000        537
 119.9000        503
 120.0000        502
 120.1000        471
 120.2000        519
 120.3000        527
 120.4000        508
 120.5000        498
 120.6000        529
 120.7000        478
 120.8000        542
 120.9000        516
 121.0000        496
 121.1000        508
 121.2000        493
 121.3000        501
 121.4000        540
 121.5000        540
 121.6000        527
 121.7000        496
 121.8000        497
 121.9000        495
 122.0000        477
 122.1000        511
 122.2000        519
 122.3000        529
 122.4000        543
 122.5000        532
 122.6000        532
 122.7000        540
 122.8000        532
 122.9000        558
 123.0000        600
 123.1000        552
 123.2000        562
 123.3000        583
 123.4000        543
 123.5000        573
 123.6000        563
 123.7000        606
 123.8000        537
 123.9000        546
 124.0000        573
 124.1000        529
 124.2000        544
 124.3000        538
 124.4000        535
 124.5000        533
 124.6000        526
 124.7000        523
 124.8000        524
 124.9000        507
 125.0000        547
 125.1000        498
 125.2000        508
 125.3000        555
 125.4000        493
 125.5000        517
 125.6000        486
 125.7000        499
 125.8000        493
 125.9000        555
 126.0000        460
 126.1000        527
 126.2000        485
 126.3000        474
 126.4000        540
 126.5000        490
 126.6000        479
 126.7000        520
 126.8000        523
 126.9000        521
 127.0000        491
 127.1000        525
 127.2000        505
 127.3000        497
 127.4000        498
 127.5000        497
 127.6000        510
[...]
 129.1000        459
 129.2000        445
 129.3000        454
 129.4000        460
 129.5000        442
 129.6000        413
 129.7000        447
 129.8000        477
 129.9000        475
 130.0000        438

; Data for range 53
_DRIVE = COUPLED
_STEPTIME = 0.2
_STEPSIZE = 0.1
_STEPMODE = C
_START = 40
_THETA = 20
_2THETA = 40
_KHI = 80
_PHI = 0
_X = 25
_Y = 25
_Z = 0
_DETECTOR = 1
; Detector type : Scintillation counter
_HV = 687
_GAIN = 80
_LLD = 0.69
_ULD = 1.866
_DETECTORSLIT = unkn
_AUX1 = 0
_AUX2 = 0
_AUX3 = 0
_TIMESTARTED = 1.03e+004
_TEMP_RATE = -1
_TEMP_DELAY = -1
_KV = 35
_MA = 40
_RANGE_WL = 1.78897
_3DPLANE = 0
_V4_ADDITIONALDETECTOR = 0
_V4_D8_DIBNUM = 1
_V4_DETECTORNAME = "Detector 1"
_V4_TTLDETECTOR = None
_V4_DETECTORTYPE = 1
_V4_DETECTORFLAGS = 524545
_V4_DETECTORHV = 687
_V4_DETECTORGAIN = 80
_V4_DETECTORLLD1 = 0.69
_V4_DETECTORWW1 = 1.176
_V4_DETECTORLLD2 = 0
_V4_DETECTORWW2 = 0
_V4_DETECTORPS = 0
_V4_DETECTORDT = 0
_V4_DETECTORPILEUPTIME = 0
_V4_COUNTERS_MASK = 1
_V4_DRIVES_MASK = 0
_V4_ENCODERS_MASK = 0
_2THETACOUNTS = 1
; 2THETA  Cnt1_D1
  40.0000        188
  40.1000        193
  40.2000        188
  40.3000        197
  40.4000        170
  40.5000        192
  40.6000        188
  40.7000        158
  40.8000        203
  40.9000        172
  41.0000        177
  41.1000        148
  41.2000        175
  41.3000        172
  41.4000        160
  41.5000        192
  41.6000        189
  41.7000        174
  41.8000        198
  41.9000        202
  42.0000        197
  42.1000        186
  42.2000        203
  42.3000        201
  42.4000        222
  42.5000        234
  42.6000        211
  42.7000        251
  42.8000        293
  42.9000        250
  43.0000        303
  43.1000        240
  43.2000        283
  43.3000        295
  43.4000        258
  43.5000        269
  43.6000        291
  43.7000        239
  43.8000        228
  43.9000        231
  44.0000        221
  44.1000        213
  44.2000        187
  44.3000        218
  44.4000        191
  44.5000        183
  44.6000        160
  44.7000        187
  44.8000        168
  44.9000        222
  45.0000        197
  45.1000        222
  45.2000        178
  45.3000        182
  45.4000        160
  45.5000        189
  45.6000        181
  45.7000        207
  45.8000        193
  45.9000        189
  46.0000        160
  46.1000        190
  46.2000        196
  46.3000        193
  46.4000        212
  46.5000        216
  46.6000        179
  46.7000        202
  46.8000        183
  46.9000        183
  47.0000        200
  47.1000        207
  47.2000        207
  47.3000        184
  47.4000        200
  47.5000        213
  47.6000        196
  47.7000        183
  47.8000        195
  47.9000        212
  48.0000        202
  48.1000        204
  48.2000        221
  48.3000        192
  48.4000        185
  48.5000        198
  48.6000        197
  48.7000        212
  48.8000        206
  48.9000        182
  49.0000        206
  49.1000        166
  49.2000        204
  49.3000        199
  49.4000        228
  49.5000        236
  49.6000        212
  49.7000        244
  49.8000        216
  49.9000        253
  50.0000        288
  50.1000        250
  50.2000        265
  50.3000        260
  50.4000        306
  50.5000        265
  50.6000        306
  50.7000        278
  50.8000        267
  50.9000        279
  51.0000        314
  51.1000        302
  51.2000        383
  51.3000        430
  51.4000        502
  51.5000        564
  51.6000        690
  51.7000        693
  51.8000        729
  51.9000        803
  52.0000        886
  52.1000        899
  52.2000        965
  52.3000        928
  52.4000        955
  52.5000        946
  52.6000        902
  52.7000        863
  52.8000        759
  52.9000        769
  53.0000        612
  53.1000        593
  53.2000        566
  53.3000        444
  53.4000        406
  53.5000        334
  53.6000        272
  53.7000        271
  53.8000        271
  53.9000        252
  54.0000        253
  54.1000        237
  54.2000        225
  54.3000        228
  54.4000        237
  54.5000        256
  54.6000        238
  54.7000        251
  54.8000        249
  54.9000        235
  55.0000        231
  55.1000        237
  55.2000        216
  55.3000        225
  55.4000        224
  55.5000        251
  55.6000        217
  55.7000        214
  55.8000        207
  55.9000        220
  56.0000        209
  56.1000        228
  56.2000        244
  56.3000        232
  56.4000        243
  56.5000        231
  56.6000        241
  56.7000        250
  56.8000        237
  56.9000        246
  57.0000        244
  57.1000        249
  57.2000        253
  57.3000        244
  57.4000        242
  57.5000        254
  57.6000        241
  57.7000        243
  57.8000        238
  57.9000        213
  58.0000        231
  58.1000        252
  58.2000        245
  58.3000        235
  58.4000        235
  58.5000        223
  58.6000        231
  58.7000        254
  58.8000        272
  58.9000        259
  59.0000        262
  59.1000        246
  59.2000        257
  59.3000        231
  59.4000        261
  59.5000        227
  59.6000        277
  59.7000        222
  59.8000        249
  59.9000        256
  60.0000        248
  60.1000        239
  60.2000        267
  60.3000        241
  60.4000        247
  60.5000        241
  60.6000        243
  60.7000        249
  60.8000        234
  60.9000        243
  61.0000        255
  61.1000        257
  61.2000        215
  61.3000        244
  61.4000        249
  61.5000        232
  61.6000        275
  61.7000        253
  61.8000        262
  61.9000        265
  62.0000        237
  62.1000        245
  62.2000        240
  62.3000        248
  62.4000        252
  62.5000        272
  62.6000        275
  62.7000        229
  62.8000        261
  62.9000        277
  63.0000        300
  63.1000        264
  63.2000        258
  63.3000        280
  63.4000        257
  63.5000        249
  63.6000        278
  63.7000        263
  63.8000        232
  63.9000        252
  64.0000        245
  64.1000        264
  64.2000        265
  64.3000        296
  64.4000        259
  64.5000        243
  64.6000        247
  64.7000        293
  64.8000        268
  64.9000        230
  65.0000        231
  65.1000        261
  65.2000        262
  65.3000        277
  65.4000        261
  65.5000        250
  65.6000        277
  65.7000        278
  65.8000        283
  65.9000        315
  66.0000        253
  66.1000        299
  66.2000        283
  66.3000        280
  66.4000        263
  66.5000        249
  66.6000        272
  66.7000        285
  66.8000        292
  66.9000        290
  67.0000        284
  67.1000        263
  67.2000        266
  67.3000        282
  67.4000        271
  67.5000        258
  67.6000        265
  67.7000        267
  67.8000        267
  67.9000        274
  68.0000        275
  68.1000        279
  68.2000        284
  68.3000        307
  68.4000        267
  68.5000        284
  68.6000        271
  68.7000        287
  68.8000        268
  68.9000        269
  69.0000        288
  69.1000        250
  69.2000        323
  69.3000        247
  69.4000        313
  69.5000        246
  69.6000        296
  69.7000        247
  69.8000        256
  69.9000        304
  70.0000        303
  70.1000        269
  70.2000        284
  70.3000        296
  70.4000        296
  70.5000        278
  70.6000        266
  70.7000        295
  70.8000        287
  70.9000        286
  71.0000        300
  71.1000        279
  71.2000        294
  71.3000        296
  71.4000        304
  71.5000        318
  71.6000        283
  71.7000        287
  71.8000        300
  71.9000        284
  72.0000        281
  72.1000        286
  72.2000        291
  72.3000        299
  72.4000        298
  72.5000        270
  72.6000        286
  72.7000        307
  72.8000        261
  72.9000        300
  73.0000        313
  73.1000        302
  73.2000        318
  73.3000        304
  73.4000        287
  73.5000        268
  73.6000        274
  73.7000        314
  73.8000        264
  73.9000        324
  74.0000        325
  74.1000        295
  74.2000        293
  74.3000        287
  74.4000        301
  74.5000        316
  74.6000        333
  74.7000        299
  74.8000        309
  74.9000        322
  75.0000        333
  75.1000        278
  75.2000        333
  75.3000        333
  75.4000        327
  75.5000        322
  75.6000        338
  75.7000        342
  75.8000        313
  75.9000        295
  76.0000        359
  76.1000        357
  76.2000        346
  76.3000        353
  76.4000        382
  76.5000        366
  76.6000        360
  76.7000        365
  76.8000        359
  76.9000        383
  77.0000        335
  77.1000        340
  77.2000        345
  77.3000        346
  77.4000        344
  77.5000        344
  77.6000        370
  77.7000        343
  77.8000        340
  77.9000        317
  78.0000        323
  78.1000        350
  78.2000        275
  78.3000        359
  78.4000        316
  78.5000        320
  78.6000        312
  78.7000        307
  78.8000        332
  78.9000        316
  79.0000        314
  79.1000        343
  79.2000        345
  79.3000        294
  79.4000        327
  79.5000        326
  79.6000        310
  79.7000        316
  79.8000        281
  79.9000        310
  80.0000        304
  80.1000        308
  80.2000        316
  80.3000        320
  80.4000        300
  80.5000        335
  80.6000        296
  80.7000        330
  80.8000        318
  80.9000        301
  81.0000        340
  81.1000        305
  81.2000        339
  81.3000        320
  81.4000        312
  81.5000        298
  81.6000        303
  81.7000        338
  81.8000        311
  81.9000        327
  82.0000        282
  82.1000        294
  82.2000        274
  82.3000        326
  82.4000        355
  82.5000        334
  82.6000        310
  82.7000        319
  82.8000        338
  82.9000        338
  83.0000        343
  83.1000        331
  83.2000        335
  83.3000        347
  83.4000        309
  83.5000        338
  83.6000        322
  83.7000        323
  83.8000        343
  83.9000        326
  84.0000        324
  84.1000        365
  84.2000        319
  84.3000        328
  84.4000        345
  84.5000        356
  84.6000        319
  84.7000        313
  84.8000        324
  84.9000        330
  85.0000        322
  85.1000        328
  85.2000        338
  85.3000        305
  85.4000        321
  85.5000        348
  85.6000        358
  85.7000        320
  85.8000        344
  85.9000        352
  86.0000        294
  86.1000        332
  86.2000        335
  86.3000        344
  86.4000        362
  86.5000        336
  86.6000        321
  86.7000        369
  86.8000        324
  86.9000        361
  87.0000        372
  87.1000        317
  87.2000        341
  87.3000        330
  87.4000        308
  87.5000        311
  87.6000        350
  87.7000        362
  87.8000        350
  87.9000        333
  88.0000        331
  88.1000        379
  88.2000        356
  88.3000        357
  88.4000        340
  88.5000        359
  88.6000        354
  88.7000        324
  88.8000        369
  88.9000        343
  89.0000        352
  89.1000        371
  89.2000        325
  89.3000        373
  89.4000        332
  89.5000        333
  89.6000        362
  89.7000        360
  89.8000        346
  89.9000        344
  90.0000        362
  90.1000        373
  90.2000        343
  90.3000        369
  90.4000        350
  90.5000        356
  90.6000        345
  90.7000        351
  90.8000        354
  90.9000        370
  91.0000        333
  91.1000        333
  91.2000        317
  91.3000        336
  91.4000        349
  91.5000        382
  91.6000        375
  91.7000        397
  91.8000        377
  91.9000        359
  92.0000        370
  92.1000        368
  92.2000        368
  92.3000        398
  92.4000        329
  92.5000        357
  92.6000        373
  92.7000        364
  92.8000        377
  92.9000        375
  93.0000        330
  93.1000        338
  93.2000        330
  93.3000        381
  93.4000        363
  93.5000        352
  93.6000        377
  93.7000        361
  93.8000        363
  93.9000        363
  94.0000        345
  94.1000        380
  94.2000        359
  94.3000        334
  94.4000        357
  94.5000        386
  94.6000        376
  94.7000        385
  94.8000        342
  94.9000        344
  95.0000        391
  95.1000        365
  95.2000        365
  95.3000        389
  95.4000        352
  95.5000        399
  95.6000        366
  95.7000        381
  95.8000        369
  95.9000        407
  96.0000        384
  96.1000        414
  96.2000        384
  96.3000        361
  96.4000        391
  96.5000        384
  96.6000        423
  96.7000        415
  96.8000        411
  96.9000        395
  97.0000        413
  97.1000        391
  97.2000        417
  97.3000        428
  97.4000        388
  97.5000        406
  97.6000        393
  97.7000        410
  97.8000        487
  97.9000        454
  98.0000        438
  98.1000        501
  98.2000        539
  98.3000        556
  98.4000        563
  98.5000        545
  98.6000        598
  98.7000        620
  98.8000        643
  98.9000        672
  99.0000        628
  99.1000        661
  99.2000        650
  99.3000        598
  99.4000        653
  99.5000        620
  99.6000        548
  99.7000        622
  99.8000        570
  99.9000        585
 100.0000        528
 100.1000        556
 100.2000        512
 100.3000        491
 100.4000        481
 100.5000        440
 100.6000        433
 100.7000        431
 100.8000        435
 100.9000        427
 101.0000        388
 101.1000        392
 101.2000        405
 101.3000        454
 101.4000        445
 101.5000        422
 101.6000        401
 101.7000        387
 101.8000        391
 101.9000        415
 102.0000        405
 102.1000        367
 102.2000        371
 102.3000        407
 102.4000        423
 102.5000        413
 102.6000        393
 102.7000        427
 102.8000        397
 102.9000        390
 103.0000        412
 103.1000        401
 103.2000        398
 103.3000        399
 103.4000        400
 103.5000        425
 103.6000        411
 103.7000        430
 103.8000        434
 103.9000        436
 104.0000        377
 104.1000        401
 104.2000        384
 104.3000        440
 104.4000        407
 104.5000        405
 104.6000        417
 104.7000        416
 104.8000        419
 104.9000        386
 105.0000        375
 105.1000        396
 105.2000        394
 105.3000        376
 105.4000        385
 105.5000        399
 105.6000        417
 105.7000        366
 105.8000        424
 105.9000        408
 106.0000        420
 106.1000        427
 106.2000        378
 106.3000        393
 106.4000        406
 106.5000        417
 106.6000        379
 106.7000        448
 106.8000        418
 106.9000        429
 107.0000        458
 107.1000        438
 107.2000        407
 107.3000        424
 107.4000        410
 107.5000        431
 107.6000        417
 107.7000        419
 107.8000        422
 107.9000        394
 108.0000        429
 108.1000        413
 108.2000        393
 108.3000        426
 108.4000        425
 108.5000        416
 108.6000        456
 108.7000        435
 108.8000        438
 108.9000        430
 109.0000        428
 109.1000        436
 109.2000        478
 109.3000        422
 109.4000        400
 109.5000        410
 109.6000        455
 109.7000        428
 109.8000        423
 109.9000        432
 110.0000        423
 110.1000        401
 110.2000        431
 110.3000        436
 110.4000        441
 110.5000        459
 110.6000        445
 110.7000        443
 110.8000        443
 110.9000        440
 111.0000        446
 111.1000        407
 111.2000        415
 111.3000        410
 111.4000        430
 111.5000        415
 111.6000        420
 111.7000        411
 111.8000        476
 111.9000        434
 112.0000        414
 112.1000        405
 112.2000        434
 112.3000        394
 112.4000        438
 112.5000        420
 112.6000        420
 112.7000        421
 112.8000        426
 112.9000        404
 113.0000        453
 113.1000        428
 113.2000        438
 113.3000        389
 113.4000        471
 113.5000        420
 113.6000        449
 113.7000        433
 113.8000        411
 113.9000        428
 114.0000        388
 114.1000        462
 114.2000        443
 114.3000        399
 114.4000        454
 114.5000        451
 114.6000        418
 114.7000        465
 114.8000        437
 114.9000        434
 115.0000        431
 115.1000        417
 115.2000        429
 115.3000        459
 115.4000        381
 115.5000        459
 115.6000        428
 115.7000        456
 115.8000        469
 115.9000        437
 116.0000        402
 116.1000        453
 116.2000        411
 116.3000        439
 116.4000        456
 116.5000        482
 116.6000        493
 116.7000        411
 116.8000        428
 116.9000        436
 117.0000        436
 117.1000        449
 117.2000        413
 117.3000        446
 117.4000        446
 117.5000        456
 117.6000        467
 117.7000        418
 117.8000        452
 117.9000        418
 118.0000        454
 118.1000        438
 118.2000        419
 118.3000        425
 118.4000        424
 118.5000        455
 118.6000        429
 118.7000        447
 118.8000        436
 118.9000        429
 119.0000        437
 119.1000        479
 119.2000        441
 119.3000        410
 119.4000        452
 119.5000        409
 119.6000        453
 119.7000        427
 119.8000        446
 119.9000        442
 120.0000        457
 120.1000        407
 120.2000        482
 120.3000        411
 120.4000        449
 120.5000        458
 120.6000        427
 120.7000        450
 120.8000        460
 120.9000        438
 121.0000        488
 121.1000        496
 121.2000        446
 121.3000        482
 121.4000        424
 121.5000        480
 121.6000        437
 121.7000        440
 121.8000        491
 121.9000        482
 122.0000        460
 122.1000        477
 122.2000        506
 122.3000        499
 122.4000        503
 122.5000        528
 122.6000        537
 122.7000        520
 122.8000        577
 122.9000        603
 123.0000        553
 123.1000        594
 123.2000        580
 123.3000        592
 123.4000        587
 123.5000        573
 123.6000        587
 123.7000        595
 123.8000        568
 123.9000        544
 124.0000        614
 124.1000        605
 124.2000        530
 124.3000        517
 124.4000        526
 124.5000        461
 124.6000        467
 124.7000        434
 124.8000        457
 124.9000        475
 125.0000        498
 125.1000        451
 125.2000        459
 125.3000        469
 125.4000        485
 125.5000        455
 125.6000        478
 125.7000        448
 125.8000        450
 125.9000        455
 126.0000        475
 126.1000        458
 126.2000        460
 126.3000        437
 126.4000        460
 126.5000        441
 126.6000        438
 126.7000        455
 126.8000        440
 126.9000        446
 127.0000        444
 127.1000        463
 127.2000        482
 127.3000        474
 127.4000        439
 127.5000        427
 127.6000        459
 127.7000        474
 127.8000        434
 127.9000        449
 128.0000        456
 128.1000        436
 128.2000        476
 128.3000        419
 128.4000        429
 128.5000        471
 128.6000        447
 128.7000        487
 128.8000        463
 128.9000        444
 129.0000        403
 129.1000        472
 129.2000        447
 129.3000        424
 129.4000        459
 129.5000        456
 129.6000        454
 129.7000        465
 129.8000        419
 129.9000        438
 130.0000        427