File: exp_dat/old/exp_2013_11_11/14pct_10L.uxd
; (content of file C:\DIFFDAT1\GIFT\MDL\Seawoong Lee\20131104_MV8\equal_area_maxkhi080_n8_2th40_130_x00y-25_10L.raw)
_FILEVERSION = 3
_SAMPLE =
_+SAMPLE =
_SITE = Korea
_USER = Admin
_GONIOMETER_CODE = 20
; Goniometer : D8 theta/2theta, stage : Unknown
_SAMPLE_CHANGER_CODE = 0
_ATTACHMENTS_CODE = 0
_GONIOMETER_RADIUS = 300
_FIXED_DIVSLIT = 1
_FIXED_SAMPLESLIT = 0
_SOLLER_SLITS = 2
_FIXED_DETSLIT = 0.1
_MONOCHROMATOR = 0
; Incident beam monochromator : None
_SOLLER_SLITS_2 = 2
_THIN_FILM = N
_BETA_FILTER = Y
_FIXED_ANTISLIT = 0.6
_ANALYZER_CODE = 0
; Received beam analyzer : None
_DATEMEASURED = "06-Nov-2013 22:01:14"
_WL_UNIT = A
_WL1 = 1.78897
_WL2 = 1.79285
_WL3 = 1.62079
_WLRATIO = 0.5
_ANODE = Co
_V4_INF_CREATOR = XRDWizard
_V4_INF_CREATOR_VERSION = V2.9.0.22
_V4_INF_WIZARD_VERSION = V2.9.0.22
_V4_INF_WIZARD_ADDINS = V2.9.0.22
_V4_INF_WIZARD_DOCTYPE = XRD
_V4_INF_OSUSER = Postech
_V4_INF_USER = Admin
_V4_INF_SITE = Korea

; Data for range 1
_DRIVE = COUPLED
_STEPTIME = 0.2
_STEPSIZE = 0.1
_STEPMODE = C
_START = 40
_THETA = 20
_2THETA = 40
_KHI = 0
_PHI = 0
_X = 0
_Y = -25
_Z = 0
_DETECTOR = 1
; Detector type : Scintillation counter
_HV = 687
_GAIN = 80
_LLD = 0.69
_ULD = 1.866
_DETECTORSLIT = unkn
_AUX1 = 0
_AUX2 = 0
_AUX3 = 0
_TIMESTARTED = 28
_TEMP_RATE = -1
_TEMP_DELAY = -1
_KV = 35
_MA = 40
_RANGE_WL = 1.78897
_3DPLANE = 0
_V4_ADDITIONALDETECTOR = 0
_V4_D8_DIBNUM = 1
_V4_DETECTORNAME = "Detector 1"
_V4_TTLDETECTOR = None
_V4_DETECTORTYPE = 1
_V4_DETECTORFLAGS = 524545
_V4_DETECTORHV = 687
_V4_DETECTORGAIN = 80
_V4_DETECTORLLD1 = 0.69
_V4_DETECTORWW1 = 1.176
_V4_DETECTORLLD2 = 0
_V4_DETECTORWW2 = 0
_V4_DETECTORPS = 0
_V4_DETECTORDT = 0
_V4_DETECTORPILEUPTIME = 0
_V4_COUNTERS_MASK = 1
_V4_DRIVES_MASK = 0
_V4_ENCODERS_MASK = 0
_2THETACOUNTS = 1
; 2THETA  Cnt1_D1
  40.0000        453
  40.1000        488
  40.2000        458
  40.3000        464
  40.4000        455
  40.5000        493
  40.6000        462
  40.7000        448
  40.8000        472
  40.9000        470
  41.0000        473
  41.1000        475
  41.2000        512
  41.3000        466
  41.4000        488
  41.5000        484
  41.6000        505
  41.7000        484
  41.8000        513
  41.9000        512
  42.0000        482
  42.1000        491
  42.2000        481
  42.3000        495
  42.4000        472
  42.5000        494
  42.6000        465
  42.7000        500
  42.8000        500
  42.9000        444
  43.0000        494
  43.1000        498
  43.2000        489
  43.3000        489
  43.4000        492
  43.5000        480
  43.6000        533
  43.7000        515
  43.8000        487
  43.9000        507
  44.0000        489
  44.1000        509
  44.2000        424
  44.3000        486
  44.4000        513
  44.5000        487
  44.6000        496
  44.7000        467
  44.8000        483
  44.9000        532
  45.0000        482
  45.1000        508
  45.2000        505
  45.3000        519
  45.4000        469
  45.5000        513
  45.6000        493
  45.7000        521
  45.8000        523
  45.9000        515
  46.0000        496
  46.1000        466
  46.2000        479
  46.3000        517
  46.4000        471
  46.5000        509
  46.6000        516
  46.7000        493
  46.8000        549
  46.9000        554
  47.0000        522
  47.1000        503
  47.2000        499
  47.3000        466
  47.4000        472
  47.5000        518
  47.6000        489
  47.7000        475
  47.8000        477
  47.9000        496
  48.0000        504
  48.1000        474
  48.2000        476
  48.3000        509
  48.4000        459
  48.5000        498
  48.6000        495
  48.7000        539
  48.8000        508
  48.9000        516
  49.0000        513
  49.1000        479
  49.2000        514
  49.3000        522
  49.4000        480
  49.5000        484
  49.6000        502
  49.7000        510
  49.8000        510
  49.9000        531
  50.0000        486
  50.1000        512
  50.2000        513
  50.3000        512
  50.4000        496
  50.5000        554
  50.6000        560
  50.7000        558
  50.8000        564
  50.9000        648
  51.0000        575
  51.1000        572
  51.2000        628
  51.3000        639
  51.4000        600
  51.5000        702
  51.6000        823
  51.7000       1030
  51.8000       1186
  51.9000       1408
  52.0000       1448
  52.1000       1465
  52.2000       1410
  52.3000       1421
  52.4000       1355
  52.5000       1200
  52.6000       1039
  52.7000        770
  52.8000        679
  52.9000        573
  53.0000        508
  53.1000        488
  53.2000        577
  53.3000        519
  53.4000        553
  53.5000        554
  53.6000        540
  53.7000        500
  53.8000        550
  53.9000        497
  54.0000        524
  54.1000        526
  54.2000        526
  54.3000        522
  54.4000        570
  54.5000        530
  54.6000        545
  54.7000        494
  54.8000        533
  54.9000        522
  55.0000        522
  55.1000        538
  55.2000        500
  55.3000        551
  55.4000        550
  55.5000        506
  55.6000        473
  55.7000        552
  55.8000        483
  55.9000        563
  56.0000        522
  56.1000        537
  56.2000        558
  56.3000        490
  56.4000        538
  56.5000        560
  56.6000        542
  56.7000        530
  56.8000        503
  56.9000        507
  57.0000        553
  57.1000        496
  57.2000        520
  57.3000        520
  57.4000        519
  57.5000        485
  57.6000        522
  57.7000        536
  57.8000        481
  57.9000        512
  58.0000        547
  58.1000        528
  58.2000        534
  58.3000        537
  58.4000        495
  58.5000        508
  58.6000        539
  58.7000        547
  58.8000        507
  58.9000        509
  59.0000        521
  59.1000        527
  59.2000        536
  59.3000        555
  59.4000        538
  59.5000        561
  59.6000        538
  59.7000        512
  59.8000        554
  59.9000        524
  60.0000        560
  60.1000        567
  60.2000        547
  60.3000        549
  60.4000        538
  60.5000        510
  60.6000        500
  60.7000        525
  60.8000        503
  60.9000        532
  61.0000        565
  61.1000        559
  61.2000        526
  61.3000        528
  61.4000        511
  61.5000        519
  61.6000        513
  61.7000        480
  61.8000        525
  61.9000        529
  62.0000        532
  62.1000        585
  62.2000        539
  62.3000        504
  62.4000        503
  62.5000        494
  62.6000        496
  62.7000        522
  62.8000        550
  62.9000        514
  63.0000        501
  63.1000        496
  63.2000        500
  63.3000        499
  63.4000        517
  63.5000        486
  63.6000        502
  63.7000        517
  63.8000        483
  63.9000        507
  64.0000        523
  64.1000        538
  64.2000        476
  64.3000        502
  64.4000        493
  64.5000        539
  64.6000        522
  64.7000        508
  64.8000        495
  64.9000        539
  65.0000        489
  65.1000        508
  65.2000        502
  65.3000        511
  65.4000        523
  65.5000        517
  65.6000        493
  65.7000        506
  65.8000        499
  65.9000        528
  66.0000        525
  66.1000        552
  66.2000        519
  66.3000        529
  66.4000        548
  66.5000        529
  66.6000        534
  66.7000        522
  66.8000        475
  66.9000        505
  67.0000        555
  67.1000        522
  67.2000        529
  67.3000        498
  67.4000        544
  67.5000        518
  67.6000        508
  67.7000        503
  67.8000        528
  67.9000        477
  68.0000        549
  68.1000        493
  68.2000        513
  68.3000        510
  68.4000        530
  68.5000        488
  68.6000        538
  68.7000        500
  68.8000        470
  68.9000        527
  69.0000        512
  69.1000        510
  69.2000        529
  69.3000        496
  69.4000        481
  69.5000        543
  69.6000        495
  69.7000        470
  69.8000        498
  69.9000        532
  70.0000        507
  70.1000        551
  70.2000        528
  70.3000        494
  70.4000        539
  70.5000        498
  70.6000        479
  70.7000        521
  70.8000        482
  70.9000        517
  71.0000        517
  71.1000        489
  71.2000        520
  71.3000        509
  71.4000        514
  71.5000        493
  71.6000        491
  71.7000        509
  71.8000        489
  71.9000        482
  72.0000        494
  72.1000        502
  72.2000        547
  72.3000        476
  72.4000        472
  72.5000        543
  72.6000        472
  72.7000        559
  72.8000        510
  72.9000        530
  73.0000        517
  73.1000        526
  73.2000        537
  73.3000        494
  73.4000        499
  73.5000        515
  73.6000        496
  73.7000        504
  73.8000        503
  73.9000        493
  74.0000        526
  74.1000        552
  74.2000        492
  74.3000        468
  74.4000        522
  74.5000        500
  74.6000        523
  74.7000        487
  74.8000        532
  74.9000        540
  75.0000        516
  75.1000        525
  75.2000        510
  75.3000        487
  75.4000        521
  75.5000        502
  75.6000        541
  75.7000        536
  75.8000        508
  75.9000        506
  76.0000        535
  76.1000        546
  76.2000        607
  76.3000        657
  76.4000        708
  76.5000        855
  76.6000        913
  76.7000        953
  76.8000       1050
  76.9000       1027
  77.0000       1092
  77.1000       1053
  77.2000        972
  77.3000        942
  77.4000        814
  77.5000        733
  77.6000        609
  77.7000        564
  77.8000        524
  77.9000        539
  78.0000        520
  78.1000        514
  78.2000        520
  78.3000        498
  78.4000        554
  78.5000        502
  78.6000        503
  78.7000        497
  78.8000        533
  78.9000        506
  79.0000        501
  79.1000        507
  79.2000        520
  79.3000        506
  79.4000        539
  79.5000        508
  79.6000        540
  79.7000        501
  79.8000        542
  79.9000        529
  80.0000        487
  80.1000        511
  80.2000        488
  80.3000        477
  80.4000        483
  80.5000        531
  80.6000        518
  80.7000        524
  80.8000        537
  80.9000        524
  81.0000        515
  81.1000        486
  81.2000        554
  81.3000        506
  81.4000        486
  81.5000        492
  81.6000        491
  81.7000        517
  81.8000        520
  81.9000        501
  82.0000        557
  82.1000        498
  82.2000        482
  82.3000        538
  82.4000        516
  82.5000        528
  82.6000        487
  82.7000        514
  82.8000        536
  82.9000        491
  83.0000        484
  83.1000        501
  83.2000        535
  83.3000        492
  83.4000        503
  83.5000        498
  83.6000        483
  83.7000        524
  83.8000        471
  83.9000        531
  84.0000        551
  84.1000        534
  84.2000        503
  84.3000        526
  84.4000        563
  84.5000        541
  84.6000        515
  84.7000        505
  84.8000        516
  84.9000        548
  85.0000        528
  85.1000        516
  85.2000        527
  85.3000        560
  85.4000        507
  85.5000        505
  85.6000        488
  85.7000        532
  85.8000        536
  85.9000        525
  86.0000        517
  86.1000        523
  86.2000        473
  86.3000        521
  86.4000        572
  86.5000        520
  86.6000        510
  86.7000        553
  86.8000        506
  86.9000        480
  87.0000        512
  87.1000        509
  87.2000        547
  87.3000        504
  87.4000        506
  87.5000        514
  87.6000        496
  87.7000        536
  87.8000        497
  87.9000        497
  88.0000        550
  88.1000        550
  88.2000        531
  88.3000        526
  88.4000        526
  88.5000        544
  88.6000        506
  88.7000        522
  88.8000        545
  88.9000        562
  89.0000        519
  89.1000        551
  89.2000        559
  89.3000        571
  89.4000        596
  89.5000        589
  89.6000        576
  89.7000        639
  89.8000        602
  89.9000        550
  90.0000        588
  90.1000        519
  90.2000        552
  90.3000        493
  90.4000        518
  90.5000        506
  90.6000        543
  90.7000        533
  90.8000        507
  90.9000        556
  91.0000        524
  91.1000        579
  91.2000        482
  91.3000        516
  91.4000        532
  91.5000        566
  91.6000        494
  91.7000        528
  91.8000        525
  91.9000        487
  92.0000        499
  92.1000        540
  92.2000        539
  92.3000        530
  92.4000        521
  92.5000        530
  92.6000        523
  92.7000        513
  92.8000        452
  92.9000        548
  93.0000        523
  93.1000        507
  93.2000        493
  93.3000        539
  93.4000        528
  93.5000        473
  93.6000        514
  93.7000        494
  93.8000        518
  93.9000        523
  94.0000        507
  94.1000        513
  94.2000        551
  94.3000        522
  94.4000        493
  94.5000        473
  94.6000        517
  94.7000        487
  94.8000        539
  94.9000        506
  95.0000        506
  95.1000        538
  95.2000        533
  95.3000        529
  95.4000        507
  95.5000        484
  95.6000        477
  95.7000        498
  95.8000        527
  95.9000        512
  96.0000        549
  96.1000        479
  96.2000        523
  96.3000        519
  96.4000        461
  96.5000        546
  96.6000        537
  96.7000        514
  96.8000        563
  96.9000        473
  97.0000        543
  97.1000        540
  97.2000        541
  97.3000        536
  97.4000        506
  97.5000        512
  97.6000        525
  97.7000        559
  97.8000        536
  97.9000        553
  98.0000        515
  98.1000        529
  98.2000        535
  98.3000        562
  98.4000        590
  98.5000        620
  98.6000        700
  98.7000        776
  98.8000        881
  98.9000       1006
  99.0000       1126
  99.1000       1264
  99.2000       1296
  99.3000       1413
  99.4000       1394
  99.5000       1359
  99.6000       1240
  99.7000       1130
  99.8000        999
  99.9000        842
 100.0000        751
 100.1000        639
 100.2000        614
 100.3000        561
 100.4000        549
 100.5000        561
 100.6000        597
 100.7000        579
 100.8000        519
 100.9000        517
 101.0000        543
 101.1000        531
 101.2000        504
 101.3000        521
 101.4000        556
 101.5000        481
 101.6000        498
 101.7000        516
 101.8000        499
 101.9000        456
 102.0000        538
 102.1000        544
 102.2000        532
 102.3000        473
 102.4000        501
 102.5000        496
 102.6000        514
 102.7000        525
 102.8000        510
 102.9000        512
 103.0000        493
 103.1000        501
 103.2000        546
 103.3000        525
 103.4000        528
 103.5000        548
 103.6000        524
 103.7000        490
 103.8000        516
 103.9000        544
 104.0000        537
 104.1000        494
 104.2000        517
 104.3000        551
 104.4000        501
 104.5000        530
 104.6000        539
 104.7000        508
 104.8000        506
 104.9000        491
 105.0000        527
 105.1000        522
 105.2000        496
 105.3000        492
 105.4000        534
 105.5000        509
 105.6000        502
 105.7000        506
 105.8000        515
 105.9000        516
 106.0000        515
 106.1000        507
 106.2000        519
 106.3000        476
 106.4000        519
 106.5000        519
 106.6000        472
 106.7000        524
 106.8000        492
 106.9000        547
 107.0000        459
 107.1000        531
 107.2000        546
 107.3000        486
 107.4000        492
 107.5000        522
 107.6000        509
 107.7000        526
 107.8000        503
 107.9000        493
 108.0000        530
 108.1000        510
 108.2000        544
 108.3000        488
 108.4000        492
 108.5000        489
 108.6000        486
 108.7000        492
 108.8000        510
 108.9000        512
 109.0000        507
 109.1000        516
 109.2000        560
 109.3000        493
 109.4000        526
 109.5000        542
 109.6000        522
 109.7000        523
 109.8000        512
 109.9000        551
 110.0000        516
 110.1000        482
 110.2000        585
 110.3000        485
 110.4000        561
 110.5000        550
 110.6000        530
 110.7000        515
 110.8000        566
 110.9000        537
 111.0000        588
 111.1000        531
 111.2000        522
 111.3000        584
 111.4000        526
 111.5000        553
 111.6000        591
 111.7000        531
 111.8000        530
 111.9000        529
 112.0000        539
 112.1000        583
 112.2000        506
 112.3000        494
 112.4000        546
 112.5000        513
 112.6000        518
 112.7000        490
 112.8000        521
 112.9000        501
 113.0000        553
 113.1000        516
 113.2000        508
 113.3000        580
 113.4000        530
 113.5000        520
 113.6000        517
 113.7000        489
 113.8000        513
 113.9000        452
 114.0000        547
 114.1000        495
 114.2000        472
 114.3000        500
 114.4000        504
 114.5000        506
 114.6000        502
 114.7000        541
 114.8000        567
 114.9000        540
 115.0000        532
 115.1000        510
 115.2000        512
 115.3000        533
 115.4000        484
 115.5000        497
 115.6000        502
 115.7000        517
 115.8000        562
 115.9000        511
 116.0000        483
 116.1000        476
 116.2000        530
 116.3000        547
 116.4000        496
 116.5000        482
 116.6000        500
 116.7000        520
 116.8000        528
 116.9000        495
 117.0000        538
 117.1000        476
 117.2000        545
 117.3000        525
 117.4000        512
 117.5000        523
 117.6000        495
 117.7000        474
 117.8000        499
 117.9000        509
 118.0000        527
 118.1000        511
 118.2000        564
 118.3000        521
 118.4000        489
 118.5000        517
 118.6000        493
 118.7000        487
 118.8000        521
 118.9000        514
 119.0000        516
 119.1000        571
 119.2000        523
 119.3000        513
 119.4000        542
 119.5000        504
 119.6000        574
 119.7000        476
 119.8000        505
 119.9000        550
 120.0000        563
 120.1000        521
 120.2000        531
 120.3000        524
 120.4000        480
 120.5000        500
 120.6000        516
 120.7000        553
 120.8000        480
 120.9000        503
 121.0000        500
 121.1000        488
 121.2000        506
 121.3000        533
 121.4000        540
 121.5000        510
 121.6000        503
 121.7000        517
 121.8000        504
 121.9000        534
 122.0000        480
 122.1000        499
 122.2000        539
 122.3000        521
 122.4000        502
 122.5000        559
 122.6000        531
 122.7000        507
 122.8000        588
 122.9000        602
 123.0000        562
 123.1000        612
 123.2000        605
 123.3000        579
 123.4000        573
 123.5000        593
 123.6000        559
 123.7000        589
 123.8000        559
 123.9000        550
 124.0000        561
 124.1000        514
 124.2000        490
 124.3000        509
 124.4000        570
 124.5000        497
 124.6000        563
 124.7000        575
 124.8000        517
 124.9000        513
 125.0000        515
 125.1000        486
 125.2000        570
 125.3000        517
 125.4000        484
 125.5000        532
 125.6000        519
 125.7000        530
 125.8000        476
 125.9000        559
 126.0000        484
 126.1000        505
 126.2000        563
 126.3000        534
 126.4000        530
 126.5000        513
 126.6000        513
 126.7000        504
 126.8000        507
 126.9000        583
 127.0000        484
 127.1000        512
 127.2000        511
 127.3000        528
 127.4000        530
 127.5000        520
 127.6000        492
 127.7000        517
 127.8000        516
 127.9000        510
 128.0000        525
 128.1000        527
 128.2000        509
 128.3000        501
 128.4000        585
 128.5000        495
 128.6000        514
 128.7000        509
 128.8000        502
 128.9000        512
 129.0000        494
 129.1000        489
 129.2000        486
 129.3000        504
 129.4000        541
 129.5000        472
 129.6000        456
 129.7000        528
 129.8000        501
 129.9000        508
 130.0000        468

; Data for range 2
_DRIVE = COUPLED
_STEPTIME = 0.2
_STEPSIZE = 0.1
_STEPMODE = C
_START = 40
_THETA = 20
_2THETA = 40
_KHI = 10.5
_PHI = 60
_X = 0
_Y = -25
_Z = 0
_DETECTOR = 1
; Detector type : Scintillation counter
_HV = 687
_GAIN = 80
_LLD = 0.69
_ULD = 1.866
_DETECTORSLIT = unkn
_AUX1 = 0
_AUX2 = 0
_AUX3 = 0
_TIMESTARTED = 225
_TEMP_RATE = -1
_TEMP_DELAY = -1
_KV = 35
_MA = 40
_RANGE_WL = 1.78897
_3DPLANE = 0
_V4_ADDITIONALDETECTOR = 0
_V4_D8_DIBNUM = 1
_V4_DETECTORNAME = "Detector 1"
_V4_TTLDETECTOR = None
_V4_DETECTORTYPE = 1
_V4_DETECTORFLAGS = 524545
_V4_DETECTORHV = 687
_V4_DETECTORGAIN = 80
_V4_DETECTORLLD1 = 0.69
_V4_DETECTORWW1 = 1.176
_V4_DETECTORLLD2 = 0
_V4_DETECTORWW2 = 0
_V4_DETECTORPS = 0
_V4_DETECTORDT = 0
_V4_DETECTORPILEUPTIME = 0
_V4_COUNTERS_MASK = 1
_V4_DRIVES_MASK = 0
_V4_ENCODERS_MASK = 0
_2THETACOUNTS = 1
; 2THETA  Cnt1_D1
  40.0000        564
  40.1000        554
  40.2000        527
  40.3000        549
  40.4000        527
  40.5000        513
  40.6000        531
  40.7000        578
  40.8000        532
  40.9000        506
  41.0000        526
  41.1000        560
  41.2000        528
  41.3000        539
  41.4000        505
  41.5000        507
  41.6000        525
  41.7000        495
  41.8000        552
  41.9000        512
  42.0000        519
  42.1000        492
  42.2000        517
  42.3000        554
  42.4000        540
  42.5000        522
  42.6000        556
  42.7000        540
  42.8000        493
  42.9000        537
  43.0000        522
  43.1000        527
  43.2000        522
  43.3000        507
  43.4000        587
  43.5000        502
  43.6000        562
  43.7000        512
  43.8000        504
  43.9000        525
  44.0000        569
  44.1000        535
  44.2000        495
  44.3000        516
  44.4000        480
  44.5000        532
  44.6000        536
  44.7000        535
  44.8000        558
  44.9000        512
  45.0000        496
  45.1000        539
  45.2000        508
  45.3000        530
  45.4000        530
  45.5000        553
  45.6000        556
  45.7000        484
  45.8000        513
  45.9000        482
  46.0000        548
  46.1000        532
  46.2000        561
  46.3000        517
  46.4000        553
  46.5000        497
  46.6000        553
  46.7000        546
  46.8000        546
  46.9000        560
  47.0000        515
  47.1000        541
  47.2000        556
  47.3000        516
  47.4000        533
  47.5000        572
  47.6000        528
  47.7000        503
  47.8000        481
  47.9000        571
  48.0000        540
  48.1000        544
  48.2000        532
  48.3000        507
  48.4000        574
  48.5000        484
  48.6000        528
  48.7000        572
  48.8000        541
  48.9000        554
  49.0000        517
  49.1000        500
  49.2000        550
  49.3000        526
  49.4000        511
  49.5000        530
  49.6000        491
  49.7000        530
  49.8000        514
  49.9000        558
  50.0000        564
  50.1000        559
  50.2000        584
  50.3000        521
  50.4000        549
  50.5000        565
  50.6000        607
  50.7000        592
  50.8000        583
  50.9000        635
  51.0000        641
  51.1000        615
  51.2000        624
  51.3000        630
  51.4000        655
  51.5000        749
  51.6000        945
  51.7000       1114
  51.8000       1326
  51.9000       1519
  52.0000       1491
  52.1000       1566
  52.2000       1588
  52.3000       1463
  52.4000       1447
  52.5000       1299
  52.6000       1026
  52.7000        800
  52.8000        617
  52.9000        609
  53.0000        578
  53.1000        585
  53.2000        510
  53.3000        561
  53.4000        592
  53.5000        536
  53.6000        525
  53.7000        546
  53.8000        523
  53.9000        521
  54.0000        526
  54.1000        546
  54.2000        514
  54.3000        568
  54.4000        544
  54.5000        540
  54.6000        547
  54.7000        516
  54.8000        527
  54.9000        534
  55.0000        518
  55.1000        523
  55.2000        497
  55.3000        548
  55.4000        523
  55.5000        515
  55.6000        532
  55.7000        550
  55.8000        503
  55.9000        546
  56.0000        504
  56.1000        503
  56.2000        559
  56.3000        502
  56.4000        481
  56.5000        554
  56.6000        502
  56.7000        528
  56.8000        592
  56.9000        499
  57.0000        508
  57.1000        480
  57.2000        536
  57.3000        521
  57.4000        533
  57.5000        525
  57.6000        505
  57.7000        530
  57.8000        491
  57.9000        513
  58.0000        546
  58.1000        528
  58.2000        494
  58.3000        499
  58.4000        590
  58.5000        524
  58.6000        529
  58.7000        512
  58.8000        510
  58.9000        529
  59.0000        537
  59.1000        544
  59.2000        573
  59.3000        556
  59.4000        523
  59.5000        541
  59.6000        590
  59.7000        574
  59.8000        516
  59.9000        534
  60.0000        537
  60.1000        554
  60.2000        545
  60.3000        523
  60.4000        469
  60.5000        502
  60.6000        495
  60.7000        518
  60.8000        512
  60.9000        549
  61.0000        473
  61.1000        555
  61.2000        504
  61.3000        496
  61.4000        523
  61.5000        526
  61.6000        509
  61.7000        554
  61.8000        475
  61.9000        503
  62.0000        517
  62.1000        503
  62.2000        506
  62.3000        484
  62.4000        573
  62.5000        487
  62.6000        525
  62.7000        500
  62.8000        520
  62.9000        536
  63.0000        509
  63.1000        512
  63.2000        500
  63.3000        504
  63.4000        461
  63.5000        460
  63.6000        503
  63.7000        500
  63.8000        488
  63.9000        488
  64.0000        505
  64.1000        525
  64.2000        516
  64.3000        504
  64.4000        501
  64.5000        504
  64.6000        532
  64.7000        477
  64.8000        534
  64.9000        494
  65.0000        541
  65.1000        565
  65.2000        508
  65.3000        528
  65.4000        512
  65.5000        523
  65.6000        509
  65.7000        553
  65.8000        505
  65.9000        546
  66.0000        496
  66.1000        538
  66.2000        513
  66.3000        483
  66.4000        541
  66.5000        550
  66.6000        545
  66.7000        544
  66.8000        505
  66.9000        507
  67.0000        498
  67.1000        534
  67.2000        512
  67.3000        527
  67.4000        532
  67.5000        516
  67.6000        547
  67.7000        537
  67.8000        516
  67.9000        509
  68.0000        518
  68.1000        509
  68.2000        521
  68.3000        553
  68.4000        563
  68.5000        503
  68.6000        515
  68.7000        529
  68.8000        490
  68.9000        527
  69.0000        514
  69.1000        508
  69.2000        528
  69.3000        538
  69.4000        518
  69.5000        507
  69.6000        506
  69.7000        507
  69.8000        525
  69.9000        465
  70.0000        556
  70.1000        497
  70.2000        509
  70.3000        512
  70.4000        531
  70.5000        507
  70.6000        545
  70.7000        552
  70.8000        524
  70.9000        534
  71.0000        558
  71.1000        454
  71.2000        553
  71.3000        522
  71.4000        562
  71.5000        499
  71.6000        553
  71.7000        495
  71.8000        507
  71.9000        549
  72.0000        532
  72.1000        479
  72.2000        509
  72.3000        482
  72.4000        488
  72.5000        491
  72.6000        531
  72.7000        519
  72.8000        500
  72.9000        491
  73.0000        516
  73.1000        485
  73.2000        499
  73.3000        514
  73.4000        492
  73.5000        529
  73.6000        543
  73.7000        521
  73.8000        503
  73.9000        516
  74.0000        571
  74.1000        557
  74.2000        496
  74.3000        504
  74.4000        492
  74.5000        514
  74.6000        484
  74.7000        512
  74.8000        552
  74.9000        499
  75.0000        547
  75.1000        499
  75.2000        518
  75.3000        519
  75.4000        495
  75.5000        494
  75.6000        534
  75.7000        523
  75.8000        538
  75.9000        515
  76.0000        557
  76.1000        534
  76.2000        549
  76.3000        570
  76.4000        670
  76.5000        709
  76.6000        695
  76.7000        809
  76.8000        796
  76.9000        876
  77.0000        786
  77.1000        787
  77.2000        686
  77.3000        705
  77.4000        611
  77.5000        589
  77.6000        604
  77.7000        525
  77.8000        510
  77.9000        527
  78.0000        512
  78.1000        500
  78.2000        543
  78.3000        525
  78.4000        527
  78.5000        528
  78.6000        510
  78.7000        492
  78.8000        509
  78.9000        525
  79.0000        549
  79.1000        499
  79.2000        496
  79.3000        513
  79.4000        554
  79.5000        541
  79.6000        500
  79.7000        547
  79.8000        546
  79.9000        513
  80.0000        516
  80.1000        545
  80.2000        522
  80.3000        490
  80.4000        532
  80.5000        555
  80.6000        508
  80.7000        492
  80.8000        488
  80.9000        544
  81.0000        527
  81.1000        510
  81.2000        524
  81.3000        510
  81.4000        478
  81.5000        473
  81.6000        522
  81.7000        524
  81.8000        527
  81.9000        497
  82.0000        523
  82.1000        493
  82.2000        523
  82.3000        507
  82.4000        516
  82.5000        489
  82.6000        502
  82.7000        528
  82.8000        533
  82.9000        538
  83.0000        501
  83.1000        523
  83.2000        519
  83.3000        521
  83.4000        517
  83.5000        523
  83.6000        500
  83.7000        503
  83.8000        519
  83.9000        488
  84.0000        517
  84.1000        530
  84.2000        548
  84.3000        497
  84.4000        533
  84.5000        506
  84.6000        520
  84.7000        497
  84.8000        557
  84.9000        524
  85.0000        533
  85.1000        545
  85.2000        532
  85.3000        547
  85.4000        543
  85.5000        527
  85.6000        534
  85.7000        533
  85.8000        485
  85.9000        541
  86.0000        548
  86.1000        543
  86.2000        486
  86.3000        473
  86.4000        528
  86.5000        529
  86.6000        527
  86.7000        560
  86.8000        539
  86.9000        475
  87.0000        509
  87.1000        501
  87.2000        498
  87.3000        547
  87.4000        523
  87.5000        533
  87.6000        520
  87.7000        549
  87.8000        504
  87.9000        499
  88.0000        512
  88.1000        570
  88.2000        517
  88.3000        522
  88.4000        507
  88.5000        516
  88.6000        527
  88.7000        509
  88.8000        545
  88.9000        520
  89.0000        538
  89.1000        564
  89.2000        584
  89.3000        573
  89.4000        524
  89.5000        533
  89.6000        560
  89.7000        605
  89.8000        545
  89.9000        567
  90.0000        503
  90.1000        591
  90.2000        538
  90.3000        542
  90.4000        510
  90.5000        523
  90.6000        555
  90.7000        547
  90.8000        519
  90.9000        509
  91.0000        488
  91.1000        537
  91.2000        536
  91.3000        551
  91.4000        516
  91.5000        516
  91.6000        523
  91.7000        557
  91.8000        527
  91.9000        524
  92.0000        507
  92.1000        541
  92.2000        585
  92.3000        505
  92.4000        510
  92.5000        547
  92.6000        512
  92.7000        497
  92.8000        483
  92.9000        500
  93.0000        518
  93.1000        472
  93.2000        499
  93.3000        520
  93.4000        511
  93.5000        500
  93.6000        508
  93.7000        505
  93.8000        537
  93.9000        516
  94.0000        518
  94.1000        548
  94.2000        506
  94.3000        537
  94.4000        530
  94.5000        535
  94.6000        531
  94.7000        524
  94.8000        542
  94.9000        514
  95.0000        479
  95.1000        496
  95.2000        510
  95.3000        504
  95.4000        512
  95.5000        502
  95.6000        527
  95.7000        521
  95.8000        509
  95.9000        503
  96.0000        508
  96.1000        472
  96.2000        517
  96.3000        489
  96.4000        514
  96.5000        498
  96.6000        521
  96.7000        548
  96.8000        488
  96.9000        490
  97.0000        540
  97.1000        531
  97.2000        521
  97.3000        549
  97.4000        518
  97.5000        529
  97.6000        500
  97.7000        499
  97.8000        510
  97.9000        537
  98.0000        574
  98.1000        544
  98.2000        528
  98.3000        565
  98.4000        588
  98.5000        613
  98.6000        619
  98.7000        722
  98.8000        817
  98.9000        853
  99.0000       1039
  99.1000       1098
  99.2000       1129
  99.3000       1208
  99.4000       1195
  99.5000       1168
  99.6000       1107
  99.7000       1006
  99.8000        863
  99.9000        753
 100.0000        661
 100.1000        651
 100.2000        589
 100.3000        559
 100.4000        541
 100.5000        547
 100.6000        515
 100.7000        537
 100.8000        560
 100.9000        531
 101.0000        542
 101.1000        523
 101.2000        532
 101.3000        512
 101.4000        552
 101.5000        533
 101.6000        528
 101.7000        500
 101.8000        498
 101.9000        534
 102.0000        483
 102.1000        526
 102.2000        489
 102.3000        522
 102.4000        533
 102.5000        513
 102.6000        510
 102.7000        525
 102.8000        519
 102.9000        499
 103.0000        513
 103.1000        565
 103.2000        516
 103.3000        532
 103.4000        505
 103.5000        508
 103.6000        483
 103.7000        507
 103.8000        497
 103.9000        497
 104.0000        538
 104.1000        548
 104.2000        496
 104.3000        481
 104.4000        533
 104.5000        517
 104.6000        511
 104.7000        475
 104.8000        506
 104.9000        517
 105.0000        490
 105.1000        504
 105.2000        513
 105.3000        497
 105.4000        486
 105.5000        536
 105.6000        536
 105.7000        531
 105.8000        528
 105.9000        504
 106.0000        520
 106.1000        500
 106.2000        536
 106.3000        539
 106.4000        482
 106.5000        530
 106.6000        526
 106.7000        522
 106.8000        529
 106.9000        501
 107.0000        484
 107.1000        536
 107.2000        537
 107.3000        507
 107.4000        533
 107.5000        496
 107.6000        517
 107.7000        486
 107.8000        568
 107.9000        512
 108.0000        488
 108.1000        518
 108.2000        516
 108.3000        529
 108.4000        501
 108.5000        514
 108.6000        505
 108.7000        515
 108.8000        530
 108.9000        497
 109.0000        530
 109.1000        516
 109.2000        525
 109.3000        469
 109.4000        505
 109.5000        505
 109.6000        532
 109.7000        463
 109.8000        471
 109.9000        520
 110.0000        566
 110.1000        507
 110.2000        537
 110.3000        549
 110.4000        538
 110.5000        521
 110.6000        499
 110.7000        549
 110.8000        551
 110.9000        562
 111.0000        586
 111.1000        543
 111.2000        532
 111.3000        505
 111.4000        528
 111.5000        510
 111.6000        557
 111.7000        542
 111.8000        502
 111.9000        535
 112.0000        499
 112.1000        532
 112.2000        527
 112.3000        546
 112.4000        529
 112.5000        517
 112.6000        500
 112.7000        549
 112.8000        551
 112.9000        499
 113.0000        522
 113.1000        533
 113.2000        511
 113.3000        492
 113.4000        515
 113.5000        509
 113.6000        505
 113.7000        501
 113.8000        524
 113.9000        497
 114.0000        543
 114.1000        493
 114.2000        497
 114.3000        496
 114.4000        499
 114.5000        498
 114.6000        512
 114.7000        536
 114.8000        469
 114.9000        518
 115.0000        533
 115.1000        515
 115.2000        496
 115.3000        528
 115.4000        516
 115.5000        470
 115.6000        520
 115.7000        511
 115.8000        484
 115.9000        537
 116.0000        529
 116.1000        504
 116.2000        506
 116.3000        522
 116.4000        498
 116.5000        552
 116.6000        512
 116.7000        504
 116.8000        518
 116.9000        558
 117.0000        489
 117.1000        511
 117.2000        487
 117.3000        533
 117.4000        503
 117.5000        536
 117.6000        487
 117.7000        540
 117.8000        504
 117.9000        509
 118.0000        508
 118.1000        508
 118.2000        504
 118.3000        501
 118.4000        511
 118.5000        511
 118.6000        513
 118.7000        491
 118.8000        494
 118.9000        514
 119.0000        514
 119.1000        566
 119.2000        456
 119.3000        490
 119.4000        497
 119.5000        535
 119.6000        520
 119.7000        509
 119.8000        552
 119.9000        506
 120.0000        517
 120.1000        490
 120.2000        523
 120.3000        551
 120.4000        555
 120.5000        509
 120.6000        517
 120.7000        486
 120.8000        523
 120.9000        525
 121.0000        476
 121.1000        516
 121.2000        541
 121.3000        471
 121.4000        481
 121.5000        558
 121.6000        509
 121.7000        506
 121.8000        512
 121.9000        542
 122.0000        562
 122.1000        541
 122.2000        570
 122.3000        529
 122.4000        530
 122.5000        524
 122.6000        524
 122.7000        552
 122.8000        592
 122.9000        557
 123.0000        581
 123.1000        594
 123.2000        603
 123.3000        621
 123.4000        592
 123.5000        558
 123.6000        591
 123.7000        588
 123.8000        597
 123.9000        560
 124.0000        546
 124.1000        523
 124.2000        529
 124.3000        519
 124.4000        532
 124.5000        538
 124.6000        491
 124.7000        505
 124.8000        547
 124.9000        486
 125.0000        502
 125.1000        501
 125.2000        504
 125.3000        543
 125.4000        507
 125.5000        534
 125.6000        501
 125.7000        510
 125.8000        498
 125.9000        521
 126.0000        536
 126.1000        490
 126.2000        534
 126.3000        515
 126.4000        486
 126.5000        534
 126.6000        464
 126.7000        495
 126.8000        545
 126.9000        483
 127.0000        574
 127.1000        525
 127.2000        482
 127.3000        538
 127.4000        544
 127.5000        567
 127.6000        484
[...]
 129.1000        352
 129.2000        346
 129.3000        338
 129.4000        323
 129.5000        358
 129.6000        381
 129.7000        335
 129.8000        351
 129.9000        342
 130.0000        364

; Data for range 53
_DRIVE = COUPLED
_STEPTIME = 0.2
_STEPSIZE = 0.1
_STEPMODE = C
_START = 40
_THETA = 20
_2THETA = 40
_KHI = 80
_PHI = 0
_X = 0
_Y = -25
_Z = 0
_DETECTOR = 1
; Detector type : Scintillation counter
_HV = 687
_GAIN = 80
_LLD = 0.69
_ULD = 1.866
_DETECTORSLIT = unkn
_AUX1 = 0
_AUX2 = 0
_AUX3 = 0
_TIMESTARTED = 1.03e+004
_TEMP_RATE = -1
_TEMP_DELAY = -1
_KV = 35
_MA = 40
_RANGE_WL = 1.78897
_3DPLANE = 0
_V4_ADDITIONALDETECTOR = 0
_V4_D8_DIBNUM = 1
_V4_DETECTORNAME = "Detector 1"
_V4_TTLDETECTOR = None
_V4_DETECTORTYPE = 1
_V4_DETECTORFLAGS = 524545
_V4_DETECTORHV = 687
_V4_DETECTORGAIN = 80
_V4_DETECTORLLD1 = 0.69
_V4_DETECTORWW1 = 1.176
_V4_DETECTORLLD2 = 0
_V4_DETECTORWW2 = 0
_V4_DETECTORPS = 0
_V4_DETECTORDT = 0
_V4_DETECTORPILEUPTIME = 0
_V4_COUNTERS_MASK = 1
_V4_DRIVES_MASK = 0
_V4_ENCODERS_MASK = 0
_2THETACOUNTS = 1
; 2THETA  Cnt1_D1
  40.0000        147
  40.1000        166
  40.2000        131
  40.3000        133
  40.4000        163
  40.5000        162
  40.6000        153
  40.7000        143
  40.8000        122
  40.9000        137
  41.0000        142
  41.1000        180
  41.2000        157
  41.3000        132
  41.4000        144
  41.5000        156
  41.6000        144
  41.7000        159
  41.8000        148
  41.9000        139
  42.0000        151
  42.1000        168
  42.2000        166
  42.3000        149
  42.4000        137
  42.5000        156
  42.6000        147
  42.7000        155
  42.8000        154
  42.9000        160
  43.0000        188
  43.1000        199
  43.2000        220
  43.3000        200
  43.4000        220
  43.5000        207
  43.6000        223
  43.7000        216
  43.8000        232
  43.9000        212
  44.0000        218
  44.1000        185
  44.2000        171
  44.3000        182
  44.4000        176
  44.5000        150
  44.6000        150
  44.7000        150
  44.8000        153
  44.9000        176
  45.0000        174
  45.1000        162
  45.2000        146
  45.3000        142
  45.4000        149
  45.5000        155
  45.6000        150
  45.7000        160
  45.8000        179
  45.9000        142
  46.0000        137
  46.1000        151
  46.2000        146
  46.3000        161
  46.4000        174
  46.5000        192
  46.6000        154
  46.7000        186
  46.8000        157
  46.9000        154
  47.0000        174
  47.1000        178
  47.2000        165
  47.3000        183
  47.4000        176
  47.5000        180
  47.6000        164
  47.7000        161
  47.8000        158
  47.9000        158
  48.0000        181
  48.1000        142
  48.2000        167
  48.3000        159
  48.4000        176
  48.5000        183
  48.6000        157
  48.7000        151
  48.8000        144
  48.9000        173
  49.0000        183
  49.1000        191
  49.2000        163
  49.3000        160
  49.4000        182
  49.5000        182
  49.6000        167
  49.7000        179
  49.8000        174
  49.9000        194
  50.0000        178
  50.1000        190
  50.2000        213
  50.3000        192
  50.4000        219
  50.5000        219
  50.6000        255
  50.7000        248
  50.8000        259
  50.9000        279
  51.0000        268
  51.1000        278
  51.2000        305
  51.3000        318
  51.4000        353
  51.5000        406
  51.6000        449
  51.7000        563
  51.8000        605
  51.9000        702
  52.0000        735
  52.1000        829
  52.2000        825
  52.3000        844
  52.4000        868
  52.5000        796
  52.6000        735
  52.7000        714
  52.8000        680
  52.9000        594
  53.0000        500
  53.1000        415
  53.2000        358
  53.3000        324
  53.4000        269
  53.5000        205
  53.6000        214
  53.7000        180
  53.8000        161
  53.9000        183
  54.0000        142
  54.1000        185
  54.2000        193
  54.3000        187
  54.4000        210
  54.5000        197
  54.6000        186
  54.7000        173
  54.8000        179
  54.9000        181
  55.0000        186
  55.1000        186
  55.2000        212
  55.3000        188
  55.4000        203
  55.5000        183
  55.6000        166
  55.7000        156
  55.8000        191
  55.9000        202
  56.0000        191
  56.1000        181
  56.2000        197
  56.3000        211
  56.4000        197
  56.5000        186
  56.6000        213
  56.7000        186
  56.8000        171
  56.9000        207
  57.0000        199
  57.1000        176
  57.2000        166
  57.3000        187
  57.4000        205
  57.5000        187
  57.6000        186
  57.7000        196
  57.8000        175
  57.9000        202
  58.0000        198
  58.1000        189
  58.2000        205
  58.3000        200
  58.4000        218
  58.5000        170
  58.6000        219
  58.7000        206
  58.8000        199
  58.9000        216
  59.0000        198
  59.1000        199
  59.2000        198
  59.3000        193
  59.4000        207
  59.5000        199
  59.6000        177
  59.7000        195
  59.8000        195
  59.9000        216
  60.0000        214
  60.1000        206
  60.2000        197
  60.3000        210
  60.4000        205
  60.5000        227
  60.6000        191
  60.7000        169
  60.8000        220
  60.9000        216
  61.0000        176
  61.1000        208
  61.2000        203
  61.3000        200
  61.4000        183
  61.5000        191
  61.6000        200
  61.7000        180
  61.8000        186
  61.9000        209
  62.0000        178
  62.1000        166
  62.2000        197
  62.3000        197
  62.4000        180
  62.5000        180
  62.6000        195
  62.7000        207
  62.8000        214
  62.9000        189
  63.0000        194
  63.1000        187
  63.2000        180
  63.3000        191
  63.4000        184
  63.5000        175
  63.6000        179
  63.7000        214
  63.8000        204
  63.9000        187
  64.0000        196
  64.1000        198
  64.2000        203
  64.3000        202
  64.4000        217
  64.5000        203
  64.6000        203
  64.7000        211
  64.8000        196
  64.9000        198
  65.0000        197
  65.1000        201
  65.2000        232
  65.3000        206
  65.4000        177
  65.5000        202
  65.6000        210
  65.7000        198
  65.8000        211
  65.9000        197
  66.0000        196
  66.1000        182
  66.2000        201
  66.3000        191
  66.4000        193
  66.5000        222
  66.6000        190
  66.7000        168
  66.8000        197
  66.9000        206
  67.0000        193
  67.1000        197
  67.2000        208
  67.3000        190
  67.4000        234
  67.5000        201
  67.6000        196
  67.7000        187
  67.8000        198
  67.9000        200
  68.0000        187
  68.1000        226
  68.2000        212
  68.3000        221
  68.4000        175
  68.5000        199
  68.6000        212
  68.7000        197
  68.8000        195
  68.9000        197
  69.0000        204
  69.1000        236
  69.2000        219
  69.3000        176
  69.4000        207
  69.5000        194
  69.6000        228
  69.7000        201
  69.8000        195
  69.9000        208
  70.0000        214
  70.1000        195
  70.2000        207
  70.3000        197
  70.4000        190
  70.5000        192
  70.6000        211
  70.7000        197
  70.8000        219
  70.9000        208
  71.0000        188
  71.1000        182
  71.2000        212
  71.3000        233
  71.4000        218
  71.5000        202
  71.6000        216
  71.7000        220
  71.8000        222
  71.9000        240
  72.0000        224
  72.1000        222
  72.2000        234
  72.3000        177
  72.4000        203
  72.5000        193
  72.6000        223
  72.7000        209
  72.8000        229
  72.9000        215
  73.0000        209
  73.1000        240
  73.2000        214
  73.3000        211
  73.4000        195
  73.5000        205
  73.6000        202
  73.7000        220
  73.8000        217
  73.9000        222
  74.0000        226
  74.1000        203
  74.2000        233
  74.3000        237
  74.4000        241
  74.5000        224
  74.6000        231
  74.7000        229
  74.8000        213
  74.9000        272
  75.0000        255
  75.1000        218
  75.2000        230
  75.3000        206
  75.4000        224
  75.5000        246
  75.6000        213
  75.7000        241
  75.8000        235
  75.9000        223
  76.0000        221
  76.1000        236
  76.2000        235
  76.3000        218
  76.4000        248
  76.5000        248
  76.6000        264
  76.7000        272
  76.8000        248
  76.9000        274
  77.0000        270
  77.1000        249
  77.2000        269
  77.3000        293
  77.4000        259
  77.5000        247
  77.6000        279
  77.7000        287
  77.8000        220
  77.9000        262
  78.0000        262
  78.1000        249
  78.2000        249
  78.3000        229
  78.4000        225
  78.5000        257
  78.6000        224
  78.7000        218
  78.8000        209
  78.9000        217
  79.0000        255
  79.1000        226
  79.2000        228
  79.3000        244
  79.4000        219
  79.5000        223
  79.6000        212
  79.7000        232
  79.8000        243
  79.9000        242
  80.0000        229
  80.1000        230
  80.2000        235
  80.3000        224
  80.4000        253
  80.5000        222
  80.6000        261
  80.7000        238
  80.8000        215
  80.9000        205
  81.0000        233
  81.1000        196
  81.2000        222
  81.3000        221
  81.4000        202
  81.5000        212
  81.6000        237
  81.7000        245
  81.8000        240
  81.9000        244
  82.0000        232
  82.1000        253
  82.2000        208
  82.3000        243
  82.4000        226
  82.5000        227
  82.6000        250
  82.7000        244
  82.8000        252
  82.9000        243
  83.0000        223
  83.1000        236
  83.2000        217
  83.3000        215
  83.4000        242
  83.5000        223
  83.6000        229
  83.7000        255
  83.8000        238
  83.9000        228
  84.0000        236
  84.1000        211
  84.2000        248
  84.3000        220
  84.4000        252
  84.5000        246
  84.6000        224
  84.7000        250
  84.8000        229
  84.9000        232
  85.0000        259
  85.1000        237
  85.2000        244
  85.3000        221
  85.4000        252
  85.5000        244
  85.6000        233
  85.7000        246
  85.8000        233
  85.9000        237
  86.0000        246
  86.1000        249
  86.2000        220
  86.3000        250
  86.4000        230
  86.5000        261
  86.6000        247
  86.7000        239
  86.8000        231
  86.9000        267
  87.0000        248
  87.1000        265
  87.2000        230
  87.3000        237
  87.4000        277
  87.5000        231
  87.6000        222
  87.7000        241
  87.8000        228
  87.9000        257
  88.0000        261
  88.1000        267
  88.2000        227
  88.3000        235
  88.4000        242
  88.5000        262
  88.6000        234
  88.7000        238
  88.8000        246
  88.9000        247
  89.0000        239
  89.1000        273
  89.2000        228
  89.3000        256
  89.4000        251
  89.5000        243
  89.6000        252
  89.7000        265
  89.8000        290
  89.9000        254
  90.0000        260
  90.1000        252
  90.2000        231
  90.3000        256
  90.4000        264
  90.5000        261
  90.6000        260
  90.7000        247
  90.8000        265
  90.9000        221
  91.0000        253
  91.1000        245
  91.2000        290
  91.3000        243
  91.4000        269
  91.5000        257
  91.6000        278
  91.7000        276
  91.8000        263
  91.9000        225
  92.0000        236
  92.1000        252
  92.2000        256
  92.3000        247
  92.4000        259
  92.5000        248
  92.6000        252
  92.7000        272
  92.8000        256
  92.9000        260
  93.0000        252
  93.1000        278
  93.2000        244
  93.3000        284
  93.4000        216
  93.5000        250
  93.6000        271
  93.7000        248
  93.8000        246
  93.9000        285
  94.0000        285
  94.1000        262
  94.2000        251
  94.3000        255
  94.4000        256
  94.5000        258
  94.6000        244
  94.7000        259
  94.8000        247
  94.9000        250
  95.0000        231
  95.1000        277
  95.2000        290
  95.3000        265
  95.4000        259
  95.5000        267
  95.6000        263
  95.7000        269
  95.8000        289
  95.9000        253
  96.0000        272
  96.1000        299
  96.2000        294
  96.3000        273
  96.4000        291
  96.5000        290
  96.6000        254
  96.7000        255
  96.8000        301
  96.9000        290
  97.0000        289
  97.1000        284
  97.2000        285
  97.3000        266
  97.4000        240
  97.5000        275
  97.6000        268
  97.7000        255
  97.8000        285
  97.9000        272
  98.0000        287
  98.1000        316
  98.2000        293
  98.3000        299
  98.4000        354
  98.5000        339
  98.6000        315
  98.7000        338
  98.8000        358
  98.9000        384
  99.0000        393
  99.1000        402
  99.2000        443
  99.3000        417
  99.4000        408
  99.5000        416
  99.6000        443
  99.7000        405
  99.8000        434
  99.9000        385
 100.0000        365
 100.1000        375
 100.2000        384
 100.3000        320
 100.4000        350
 100.5000        313
 100.6000        325
 100.7000        267
 100.8000        322
 100.9000        319
 101.0000        323
 101.1000        285
 101.2000        289
 101.3000        276
 101.4000        315
 101.5000        268
 101.6000        282
 101.7000        298
 101.8000        277
 101.9000        277
 102.0000        265
 102.1000        323
 102.2000        319
 102.3000        298
 102.4000        286
 102.5000        316
 102.6000        293
 102.7000        298
 102.8000        265
 102.9000        290
 103.0000        286
 103.1000        283
 103.2000        305
 103.3000        271
 103.4000        294
 103.5000        301
 103.6000        269
 103.7000        286
 103.8000        298
 103.9000        287
 104.0000        290
 104.1000        293
 104.2000        316
 104.3000        330
 104.4000        290
 104.5000        291
 104.6000        300
 104.7000        292
 104.8000        295
 104.9000        268
 105.0000        329
 105.1000        309
 105.2000        300
 105.3000        271
 105.4000        310
 105.5000        290
 105.6000        296
 105.7000        326
 105.8000        261
 105.9000        290
 106.0000        293
 106.1000        296
 106.2000        298
 106.3000        280
 106.4000        313
 106.5000        312
 106.6000        301
 106.7000        344
 106.8000        312
 106.9000        303
 107.0000        328
 107.1000        306
 107.2000        350
 107.3000        330
 107.4000        298
 107.5000        304
 107.6000        327
 107.7000        361
 107.8000        310
 107.9000        290
 108.0000        320
 108.1000        283
 108.2000        293
 108.3000        281
 108.4000        315
 108.5000        341
 108.6000        287
 108.7000        311
 108.8000        287
 108.9000        290
 109.0000        327
 109.1000        333
 109.2000        336
 109.3000        337
 109.4000        303
 109.5000        297
 109.6000        313
 109.7000        314
 109.8000        296
 109.9000        336
 110.0000        339
 110.1000        347
 110.2000        314
 110.3000        333
 110.4000        361
 110.5000        337
 110.6000        320
 110.7000        318
 110.8000        329
 110.9000        361
 111.0000        371
 111.1000        349
 111.2000        340
 111.3000        325
 111.4000        339
 111.5000        342
 111.6000        334
 111.7000        336
 111.8000        345
 111.9000        309
 112.0000        349
 112.1000        308
 112.2000        347
 112.3000        326
 112.4000        318
 112.5000        352
 112.6000        315
 112.7000        312
 112.8000        322
 112.9000        330
 113.0000        365
 113.1000        351
 113.2000        307
 113.3000        320
 113.4000        309
 113.5000        310
 113.6000        308
 113.7000        303
 113.8000        346
 113.9000        332
 114.0000        300
 114.1000        290
 114.2000        301
 114.3000        290
 114.4000        299
 114.5000        337
 114.6000        321
 114.7000        316
 114.8000        336
 114.9000        353
 115.0000        307
 115.1000        350
 115.2000        348
 115.3000        339
 115.4000        367
 115.5000        314
 115.6000        339
 115.7000        302
 115.8000        342
 115.9000        367
 116.0000        340
 116.1000        338
 116.2000        337
 116.3000        346
 116.4000        298
 116.5000        377
 116.6000        380
 116.7000        329
 116.8000        347
 116.9000        334
 117.0000        351
 117.1000        373
 117.2000        353
 117.3000        366
 117.4000        324
 117.5000        331
 117.6000        330
 117.7000        362
 117.8000        331
 117.9000        348
 118.0000        363
 118.1000        362
 118.2000        303
 118.3000        369
 118.4000        363
 118.5000        362
 118.6000        362
 118.7000        342
 118.8000        348
 118.9000        344
 119.0000        334
 119.1000        344
 119.2000        345
 119.3000        371
 119.4000        359
 119.5000        368
 119.6000        348
 119.7000        328
 119.8000        316
 119.9000        379
 120.0000        313
 120.1000        367
 120.2000        340
 120.3000        305
 120.4000        354
 120.5000        351
 120.6000        332
 120.7000        340
 120.8000        356
 120.9000        367
 121.0000        364
 121.1000        351
 121.2000        339
 121.3000        341
 121.4000        375
 121.5000        369
 121.6000        356
 121.7000        352
 121.8000        373
 121.9000        367
 122.0000        384
 122.1000        369
 122.2000        374
 122.3000        385
 122.4000        427
 122.5000        408
 122.6000        401
 122.7000        462
 122.8000        450
 122.9000        454
 123.0000        478
 123.1000        411
 123.2000        476
 123.3000        461
 123.4000        440
 123.5000        488
 123.6000        493
 123.7000        411
 123.8000        462
 123.9000        452
 124.0000        438
 124.1000        428
 124.2000        391
 124.3000        364
 124.4000        381
 124.5000        346
 124.6000        402
 124.7000        363
 124.8000        397
 124.9000        348
 125.0000        369
 125.1000        352
 125.2000        367
 125.3000        398
 125.4000        357
 125.5000        386
 125.6000        380
 125.7000        357
 125.8000        333
 125.9000        384
 126.0000        364
 126.1000        364
 126.2000        373
 126.3000        344
 126.4000        381
 126.5000        351
 126.6000        362
 126.7000        356
 126.8000        360
 126.9000        336
 127.0000        378
 127.1000        344
 127.2000        344
 127.3000        383
 127.4000        350
 127.5000        384
 127.6000        384
 127.7000        354
 127.8000        363
 127.9000        376
 128.0000        382
 128.1000        320
 128.2000        357
 128.3000        342
 128.4000        349
 128.5000        339
 128.6000        351
 128.7000        357
 128.8000        357
 128.9000        322
 129.0000        329
 129.1000        360
 129.2000        358
 129.3000        338
 129.4000        396
 129.5000        372
 129.6000        375
 129.7000        353
 129.8000        395
 129.9000        372
 130.0000        328