File: exp_dat/old/exp_2013_11_11/15pct_10G.uxd
; (content of file C:\DIFFDAT1\GIFT\MDL\Seawoong Lee\20131104_MV8\equal_area_maxkhi080_n8_2th40_130_x25y00_10g.raw)
_FILEVERSION = 3
_SAMPLE =
_+SAMPLE =
_SITE = Korea
_USER = Admin
_GONIOMETER_CODE = 20
; Goniometer : D8 theta/2theta, stage : Unknown
_SAMPLE_CHANGER_CODE = 0
_ATTACHMENTS_CODE = 0
_GONIOMETER_RADIUS = 300
_FIXED_DIVSLIT = 1
_FIXED_SAMPLESLIT = 0
_SOLLER_SLITS = 2
_FIXED_DETSLIT = 0.1
_MONOCHROMATOR = 0
; Incident beam monochromator : None
_SOLLER_SLITS_2 = 2
_THIN_FILM = N
_BETA_FILTER = Y
_FIXED_ANTISLIT = 0.6
_ANALYZER_CODE = 0
; Received beam analyzer : None
_DATEMEASURED = "08-Nov-2013 15:48:33"
_WL_UNIT = A
_WL1 = 1.78897
_WL2 = 1.79285
_WL3 = 1.62079
_WLRATIO = 0.5
_ANODE = Co
_V4_INF_CREATOR = XRDWizard
_V4_INF_CREATOR_VERSION = V2.9.0.22
_V4_INF_WIZARD_VERSION = V2.9.0.22
_V4_INF_WIZARD_ADDINS = V2.9.0.22
_V4_INF_WIZARD_DOCTYPE = XRD
_V4_INF_OSUSER = Postech
_V4_INF_USER = Admin
_V4_INF_SITE = Korea

; Data for range 1
_DRIVE = COUPLED
_STEPTIME = 0.2
_STEPSIZE = 0.1
_STEPMODE = C
_START = 40
_THETA = 20
_2THETA = 40
_KHI = 0
_PHI = 0
_X = 25
_Y = 0
_Z = 0
_DETECTOR = 1
; Detector type : Scintillation counter
_HV = 687
_GAIN = 80
_LLD = 0.69
_ULD = 1.866
_DETECTORSLIT = unkn
_AUX1 = 0
_AUX2 = 0
_AUX3 = 0
_TIMESTARTED = 28
_TEMP_RATE = -1
_TEMP_DELAY = -1
_KV = 35
_MA = 40
_RANGE_WL = 1.78897
_3DPLANE = 0
_V4_ADDITIONALDETECTOR = 0
_V4_D8_DIBNUM = 1
_V4_DETECTORNAME = "Detector 1"
_V4_TTLDETECTOR = None
_V4_DETECTORTYPE = 1
_V4_DETECTORFLAGS = 524545
_V4_DETECTORHV = 687
_V4_DETECTORGAIN = 80
_V4_DETECTORLLD1 = 0.69
_V4_DETECTORWW1 = 1.176
_V4_DETECTORLLD2 = 0
_V4_DETECTORWW2 = 0
_V4_DETECTORPS = 0
_V4_DETECTORDT = 0
_V4_DETECTORPILEUPTIME = 0
_V4_COUNTERS_MASK = 1
_V4_DRIVES_MASK = 0
_V4_ENCODERS_MASK = 0
_2THETACOUNTS = 1
; 2THETA  Cnt1_D1
  40.0000        469
  40.1000        472
  40.2000        479
  40.3000        427
  40.4000        460
  40.5000        473
  40.6000        458
  40.7000        467
  40.8000        487
  40.9000        464
  41.0000        449
  41.1000        484
  41.2000        459
  41.3000        466
  41.4000        466
  41.5000        462
  41.6000        452
  41.7000        443
  41.8000        475
  41.9000        418
  42.0000        477
  42.1000        484
  42.2000        440
  42.3000        477
  42.4000        480
  42.5000        488
  42.6000        461
  42.7000        495
  42.8000        443
  42.9000        496
  43.0000        506
  43.1000        487
  43.2000        449
  43.3000        466
  43.4000        501
  43.5000        496
  43.6000        462
  43.7000        510
  43.8000        470
  43.9000        480
  44.0000        529
  44.1000        477
  44.2000        482
  44.3000        477
  44.4000        439
  44.5000        516
  44.6000        497
  44.7000        441
  44.8000        501
  44.9000        503
  45.0000        478
  45.1000        497
  45.2000        489
  45.3000        498
  45.4000        505
  45.5000        546
  45.6000        484
  45.7000        444
  45.8000        447
  45.9000        541
  46.0000        520
  46.1000        482
  46.2000        484
  46.3000        459
  46.4000        470
  46.5000        455
  46.6000        485
  46.7000        511
  46.8000        496
  46.9000        533
  47.0000        506
  47.1000        481
  47.2000        522
  47.3000        513
  47.4000        498
  47.5000        480
  47.6000        460
  47.7000        520
  47.8000        519
  47.9000        487
  48.0000        487
  48.1000        472
  48.2000        501
  48.3000        463
  48.4000        471
  48.5000        521
  48.6000        458
  48.7000        475
  48.8000        491
  48.9000        493
  49.0000        491
  49.1000        508
  49.2000        518
  49.3000        499
  49.4000        503
  49.5000        476
  49.6000        507
  49.7000        466
  49.8000        549
  49.9000        546
  50.0000        483
  50.1000        492
  50.2000        477
  50.3000        518
  50.4000        532
  50.5000        495
  50.6000        521
  50.7000        540
  50.8000        542
  50.9000        507
  51.0000        550
  51.1000        559
  51.2000        555
  51.3000        541
  51.4000        604
  51.5000        679
  51.6000        711
  51.7000        871
  51.8000       1020
  51.9000       1134
  52.0000       1156
  52.1000       1181
  52.2000       1175
  52.3000       1178
  52.4000       1162
  52.5000       1052
  52.6000        902
  52.7000        778
  52.8000        646
  52.9000        564
  53.0000        549
  53.1000        574
  53.2000        536
  53.3000        516
  53.4000        521
  53.5000        506
  53.6000        554
  53.7000        515
  53.8000        514
  53.9000        502
  54.0000        530
  54.1000        510
  54.2000        526
  54.3000        525
  54.4000        511
  54.5000        528
  54.6000        539
  54.7000        516
  54.8000        574
  54.9000        494
  55.0000        513
  55.1000        521
  55.2000        546
  55.3000        483
  55.4000        525
  55.5000        520
  55.6000        479
  55.7000        509
  55.8000        498
  55.9000        508
  56.0000        492
  56.1000        545
  56.2000        510
  56.3000        493
  56.4000        556
  56.5000        531
  56.6000        506
  56.7000        521
  56.8000        506
  56.9000        527
  57.0000        556
  57.1000        495
  57.2000        481
  57.3000        519
  57.4000        583
  57.5000        483
  57.6000        515
  57.7000        526
  57.8000        476
  57.9000        515
  58.0000        557
  58.1000        505
  58.2000        511
  58.3000        530
  58.4000        533
  58.5000        481
  58.6000        527
  58.7000        488
  58.8000        481
  58.9000        506
  59.0000        481
  59.1000        493
  59.2000        488
  59.3000        526
  59.4000        502
  59.5000        544
  59.6000        537
  59.7000        520
  59.8000        495
  59.9000        509
  60.0000        557
  60.1000        499
  60.2000        529
  60.3000        516
  60.4000        518
  60.5000        513
  60.6000        490
  60.7000        560
  60.8000        536
  60.9000        510
  61.0000        478
  61.1000        514
  61.2000        513
  61.3000        519
  61.4000        506
  61.5000        481
  61.6000        522
  61.7000        546
  61.8000        537
  61.9000        545
  62.0000        486
  62.1000        513
  62.2000        529
  62.3000        505
  62.4000        542
  62.5000        511
  62.6000        527
  62.7000        505
  62.8000        515
  62.9000        455
  63.0000        534
  63.1000        520
  63.2000        534
  63.3000        489
  63.4000        510
  63.5000        480
  63.6000        482
  63.7000        546
  63.8000        506
  63.9000        483
  64.0000        540
  64.1000        506
  64.2000        545
  64.3000        527
  64.4000        510
  64.5000        506
  64.6000        524
  64.7000        514
  64.8000        536
  64.9000        547
  65.0000        552
  65.1000        557
  65.2000        500
  65.3000        468
  65.4000        498
  65.5000        508
  65.6000        476
  65.7000        525
  65.8000        505
  65.9000        515
  66.0000        537
  66.1000        487
  66.2000        509
  66.3000        462
  66.4000        511
  66.5000        546
  66.6000        491
  66.7000        513
  66.8000        492
  66.9000        510
  67.0000        479
  67.1000        496
  67.2000        521
  67.3000        517
  67.4000        542
  67.5000        537
  67.6000        527
  67.7000        552
  67.8000        543
  67.9000        484
  68.0000        508
  68.1000        509
  68.2000        532
  68.3000        487
  68.4000        516
  68.5000        475
  68.6000        492
  68.7000        548
  68.8000        493
  68.9000        565
  69.0000        517
  69.1000        485
  69.2000        490
  69.3000        512
  69.4000        496
  69.5000        502
  69.6000        479
  69.7000        551
  69.8000        514
  69.9000        529
  70.0000        492
  70.1000        518
  70.2000        492
  70.3000        535
  70.4000        483
  70.5000        484
  70.6000        516
  70.7000        494
  70.8000        529
  70.9000        527
  71.0000        496
  71.1000        518
  71.2000        535
  71.3000        499
  71.4000        524
  71.5000        489
  71.6000        525
  71.7000        481
  71.8000        501
  71.9000        534
  72.0000        510
  72.1000        510
  72.2000        519
  72.3000        520
  72.4000        509
  72.5000        527
  72.6000        506
  72.7000        515
  72.8000        516
  72.9000        549
  73.0000        529
  73.1000        543
  73.2000        522
  73.3000        510
  73.4000        468
  73.5000        475
  73.6000        493
  73.7000        519
  73.8000        474
  73.9000        531
  74.0000        504
  74.1000        500
  74.2000        519
  74.3000        495
  74.4000        508
  74.5000        565
  74.6000        478
  74.7000        503
  74.8000        510
  74.9000        525
  75.0000        505
  75.1000        514
  75.2000        486
  75.3000        554
  75.4000        545
  75.5000        548
  75.6000        545
  75.7000        613
  75.8000        550
  75.9000        585
  76.0000        681
  76.1000        751
  76.2000        825
  76.3000        961
  76.4000       1094
  76.5000       1193
  76.6000       1253
  76.7000       1246
  76.8000       1276
  76.9000       1267
  77.0000       1282
  77.1000       1128
  77.2000       1039
  77.3000        940
  77.4000        842
  77.5000        741
  77.6000        632
  77.7000        591
  77.8000        574
  77.9000        574
  78.0000        527
  78.1000        554
  78.2000        540
  78.3000        558
  78.4000        523
  78.5000        540
  78.6000        526
  78.7000        511
  78.8000        543
  78.9000        515
  79.0000        535
  79.1000        519
  79.2000        514
  79.3000        467
  79.4000        515
  79.5000        536
  79.6000        546
  79.7000        519
  79.8000        503
  79.9000        535
  80.0000        520
  80.1000        479
  80.2000        471
  80.3000        520
  80.4000        496
  80.5000        546
  80.6000        501
  80.7000        513
  80.8000        496
  80.9000        536
  81.0000        504
  81.1000        500
  81.2000        512
  81.3000        509
  81.4000        532
  81.5000        511
  81.6000        486
  81.7000        508
  81.8000        521
  81.9000        502
  82.0000        466
  82.1000        500
  82.2000        544
  82.3000        488
  82.4000        524
  82.5000        493
  82.6000        568
  82.7000        492
  82.8000        506
  82.9000        575
  83.0000        513
  83.1000        512
  83.2000        497
  83.3000        499
  83.4000        514
  83.5000        513
  83.6000        535
  83.7000        518
  83.8000        567
  83.9000        542
  84.0000        537
  84.1000        523
  84.2000        494
  84.3000        507
  84.4000        554
  84.5000        497
  84.6000        512
  84.7000        502
  84.8000        502
  84.9000        490
  85.0000        473
  85.1000        523
  85.2000        537
  85.3000        528
  85.4000        523
  85.5000        538
  85.6000        518
  85.7000        541
  85.8000        465
  85.9000        526
  86.0000        468
  86.1000        525
  86.2000        521
  86.3000        469
  86.4000        466
  86.5000        539
  86.6000        560
  86.7000        527
  86.8000        503
  86.9000        487
  87.0000        522
  87.1000        534
  87.2000        486
  87.3000        473
  87.4000        538
  87.5000        538
  87.6000        515
  87.7000        521
  87.8000        493
  87.9000        504
  88.0000        522
  88.1000        499
  88.2000        508
  88.3000        493
  88.4000        505
  88.5000        551
  88.6000        522
  88.7000        496
  88.8000        512
  88.9000        514
  89.0000        468
  89.1000        497
  89.2000        520
  89.3000        499
  89.4000        498
  89.5000        530
  89.6000        507
  89.7000        523
  89.8000        517
  89.9000        504
  90.0000        525
  90.1000        508
  90.2000        514
  90.3000        505
  90.4000        555
  90.5000        521
  90.6000        503
  90.7000        542
  90.8000        515
  90.9000        544
  91.0000        552
  91.1000        527
  91.2000        503
  91.3000        482
  91.4000        493
  91.5000        518
  91.6000        488
  91.7000        539
  91.8000        504
  91.9000        530
  92.0000        482
  92.1000        489
  92.2000        516
  92.3000        494
  92.4000        519
  92.5000        498
  92.6000        538
  92.7000        482
  92.8000        478
  92.9000        523
  93.0000        488
  93.1000        534
  93.2000        540
  93.3000        495
  93.4000        504
  93.5000        496
  93.6000        519
  93.7000        510
  93.8000        500
  93.9000        525
  94.0000        516
  94.1000        522
  94.2000        509
  94.3000        521
  94.4000        465
  94.5000        513
  94.6000        513
  94.7000        532
  94.8000        527
  94.9000        480
  95.0000        547
  95.1000        511
  95.2000        503
  95.3000        497
  95.4000        525
  95.5000        506
  95.6000        509
  95.7000        529
  95.8000        502
  95.9000        505
  96.0000        557
  96.1000        528
  96.2000        498
  96.3000        504
  96.4000        509
  96.5000        513
  96.6000        510
  96.7000        540
  96.8000        544
  96.9000        532
  97.0000        560
  97.1000        511
  97.2000        485
  97.3000        521
  97.4000        471
  97.5000        579
  97.6000        522
  97.7000        528
  97.8000        564
  97.9000        571
  98.0000        570
  98.1000        647
  98.2000        596
  98.3000        608
  98.4000        690
  98.5000        805
  98.6000        902
  98.7000       1063
  98.8000       1175
  98.9000       1270
  99.0000       1495
  99.1000       1524
  99.2000       1594
  99.3000       1614
  99.4000       1578
  99.5000       1500
  99.6000       1328
  99.7000       1219
  99.8000       1116
  99.9000        900
 100.0000        807
 100.1000        728
 100.2000        657
 100.3000        641
 100.4000        619
 100.5000        564
 100.6000        521
 100.7000        566
 100.8000        573
 100.9000        530
 101.0000        517
 101.1000        521
 101.2000        561
 101.3000        555
 101.4000        515
 101.5000        525
 101.6000        532
 101.7000        504
 101.8000        511
 101.9000        532
 102.0000        563
 102.1000        517
 102.2000        498
 102.3000        506
 102.4000        532
 102.5000        493
 102.6000        522
 102.7000        514
 102.8000        504
 102.9000        545
 103.0000        511
 103.1000        524
 103.2000        504
 103.3000        530
 103.4000        531
 103.5000        494
 103.6000        510
 103.7000        525
 103.8000        504
 103.9000        522
 104.0000        531
 104.1000        530
 104.2000        480
 104.3000        515
 104.4000        520
 104.5000        541
 104.6000        552
 104.7000        494
 104.8000        529
 104.9000        498
 105.0000        530
 105.1000        514
 105.2000        521
 105.3000        496
 105.4000        498
 105.5000        486
 105.6000        507
 105.7000        538
 105.8000        557
 105.9000        499
 106.0000        485
 106.1000        489
 106.2000        483
 106.3000        522
 106.4000        522
 106.5000        494
 106.6000        479
 106.7000        517
 106.8000        503
 106.9000        505
 107.0000        574
 107.1000        548
 107.2000        524
 107.3000        487
 107.4000        472
 107.5000        518
 107.6000        506
 107.7000        510
 107.8000        522
 107.9000        519
 108.0000        507
 108.1000        510
 108.2000        513
 108.3000        515
 108.4000        502
 108.5000        563
 108.6000        501
 108.7000        515
 108.8000        477
 108.9000        484
 109.0000        434
 109.1000        536
 109.2000        521
 109.3000        498
 109.4000        459
 109.5000        523
 109.6000        483
 109.7000        511
 109.8000        459
 109.9000        550
 110.0000        522
 110.1000        547
 110.2000        475
 110.3000        516
 110.4000        471
 110.5000        520
 110.6000        545
 110.7000        520
 110.8000        497
 110.9000        542
 111.0000        480
 111.1000        520
 111.2000        544
 111.3000        521
 111.4000        504
 111.5000        474
 111.6000        519
 111.7000        534
 111.8000        526
 111.9000        493
 112.0000        550
 112.1000        468
 112.2000        517
 112.3000        545
 112.4000        527
 112.5000        532
 112.6000        524
 112.7000        520
 112.8000        519
 112.9000        510
 113.0000        503
 113.1000        520
 113.2000        500
 113.3000        526
 113.4000        501
 113.5000        503
 113.6000        492
 113.7000        541
 113.8000        505
 113.9000        476
 114.0000        523
 114.1000        499
 114.2000        470
 114.3000        568
 114.4000        514
 114.5000        548
 114.6000        502
 114.7000        508
 114.8000        524
 114.9000        528
 115.0000        491
 115.1000        516
 115.2000        531
 115.3000        510
 115.4000        537
 115.5000        494
 115.6000        524
 115.7000        518
 115.8000        503
 115.9000        505
 116.0000        504
 116.1000        482
 116.2000        557
 116.3000        523
 116.4000        518
 116.5000        491
 116.6000        499
 116.7000        555
 116.8000        510
 116.9000        504
 117.0000        515
 117.1000        529
 117.2000        506
 117.3000        512
 117.4000        474
 117.5000        523
 117.6000        490
 117.7000        505
 117.8000        463
 117.9000        520
 118.0000        503
 118.1000        480
 118.2000        488
 118.3000        530
 118.4000        537
 118.5000        509
 118.6000        499
 118.7000        531
 118.8000        477
 118.9000        500
 119.0000        500
 119.1000        444
 119.2000        484
 119.3000        517
 119.4000        511
 119.5000        476
 119.6000        515
 119.7000        481
 119.8000        478
 119.9000        505
 120.0000        513
 120.1000        541
 120.2000        511
 120.3000        484
 120.4000        516
 120.5000        511
 120.6000        548
 120.7000        504
 120.8000        517
 120.9000        483
 121.0000        513
 121.1000        514
 121.2000        514
 121.3000        515
 121.4000        472
 121.5000        513
 121.6000        552
 121.7000        499
 121.8000        483
 121.9000        544
 122.0000        518
 122.1000        511
 122.2000        505
 122.3000        507
 122.4000        548
 122.5000        523
 122.6000        547
 122.7000        479
 122.8000        515
 122.9000        556
 123.0000        548
 123.1000        505
 123.2000        530
 123.3000        564
 123.4000        585
 123.5000        547
 123.6000        536
 123.7000        537
 123.8000        516
 123.9000        524
 124.0000        538
 124.1000        515
 124.2000        547
 124.3000        528
 124.4000        523
 124.5000        523
 124.6000        498
 124.7000        480
 124.8000        527
 124.9000        541
 125.0000        511
 125.1000        512
 125.2000        517
 125.3000        525
 125.4000        503
 125.5000        510
 125.6000        546
 125.7000        487
 125.8000        509
 125.9000        551
 126.0000        526
 126.1000        558
 126.2000        494
 126.3000        472
 126.4000        526
 126.5000        536
 126.6000        500
 126.7000        545
 126.8000        548
 126.9000        503
 127.0000        512
 127.1000        502
 127.2000        488
 127.3000        520
 127.4000        509
 127.5000        508
 127.6000        558
 127.7000        523
 127.8000        478
 127.9000        505
 128.0000        524
 128.1000        482
 128.2000        502
 128.3000        467
 128.4000        453
 128.5000        477
 128.6000        510
 128.7000        543
 128.8000        545
 128.9000        522
 129.0000        546
 129.1000        508
 129.2000        464
 129.3000        512
 129.4000        492
 129.5000        488
 129.6000        494
 129.7000        523
 129.8000        496
 129.9000        506
 130.0000        505

; Data for range 2
_DRIVE = COUPLED
_STEPTIME = 0.2
_STEPSIZE = 0.1
_STEPMODE = C
_START = 40
_THETA = 20
_2THETA = 40
_KHI = 10.5
_PHI = 60
_X = 25
_Y = 0
_Z = 0
_DETECTOR = 1
; Detector type : Scintillation counter
_HV = 687
_GAIN = 80
_LLD = 0.69
_ULD = 1.866
_DETECTORSLIT = unkn
_AUX1 = 0
_AUX2 = 0
_AUX3 = 0
_TIMESTARTED = 225
_TEMP_RATE = -1
_TEMP_DELAY = -1
_KV = 35
_MA = 40
_RANGE_WL = 1.78897
_3DPLANE = 0
_V4_ADDITIONALDETECTOR = 0
_V4_D8_DIBNUM = 1
_V4_DETECTORNAME = "Detector 1"
_V4_TTLDETECTOR = None
_V4_DETECTORTYPE = 1
_V4_DETECTORFLAGS = 524545
_V4_DETECTORHV = 687
_V4_DETECTORGAIN = 80
_V4_DETECTORLLD1 = 0.69
_V4_DETECTORWW1 = 1.176
_V4_DETECTORLLD2 = 0
_V4_DETECTORWW2 = 0
_V4_DETECTORPS = 0
_V4_DETECTORDT = 0
_V4_DETECTORPILEUPTIME = 0
_V4_COUNTERS_MASK = 1
_V4_DRIVES_MASK = 0
_V4_ENCODERS_MASK = 0
_2THETACOUNTS = 1
; 2THETA  Cnt1_D1
  40.0000        533
  40.1000        530
  40.2000        523
  40.3000        522
  40.4000        516
  40.5000        529
  40.6000        474
  40.7000        549
  40.8000        507
  40.9000        577
  41.0000        547
  41.1000        594
  41.2000        563
  41.3000        519
  41.4000        528
  41.5000        548
  41.6000        533
  41.7000        521
  41.8000        508
  41.9000        523
  42.0000        508
  42.1000        539
  42.2000        508
  42.3000        560
  42.4000        517
  42.5000        516
  42.6000        556
  42.7000        529
  42.8000        546
  42.9000        529
  43.0000        509
  43.1000        514
  43.2000        502
  43.3000        510
  43.4000        544
  43.5000        510
  43.6000        548
  43.7000        497
  43.8000        502
  43.9000        521
  44.0000        516
  44.1000        539
  44.2000        529
  44.3000        513
  44.4000        520
  44.5000        548
  44.6000        576
  44.7000        555
  44.8000        534
  44.9000        513
  45.0000        505
  45.1000        579
  45.2000        558
  45.3000        519
  45.4000        514
  45.5000        519
  45.6000        563
  45.7000        542
  45.8000        511
  45.9000        523
  46.0000        515
  46.1000        506
  46.2000        542
  46.3000        530
  46.4000        557
  46.5000        524
  46.6000        523
  46.7000        512
  46.8000        512
  46.9000        554
  47.0000        534
  47.1000        535
  47.2000        504
  47.3000        548
  47.4000        542
  47.5000        450
  47.6000        552
  47.7000        536
  47.8000        523
  47.9000        553
  48.0000        550
  48.1000        557
  48.2000        528
  48.3000        580
  48.4000        507
  48.5000        534
  48.6000        505
  48.7000        524
  48.8000        498
  48.9000        543
  49.0000        532
  49.1000        532
  49.2000        520
  49.3000        517
  49.4000        547
  49.5000        503
  49.6000        504
  49.7000        519
  49.8000        503
  49.9000        593
  50.0000        567
  50.1000        556
  50.2000        506
  50.3000        513
  50.4000        497
  50.5000        549
  50.6000        591
  50.7000        589
  50.8000        551
  50.9000        493
  51.0000        573
  51.1000        534
  51.2000        545
  51.3000        570
  51.4000        610
  51.5000        729
  51.6000        849
  51.7000       1011
  51.8000       1208
  51.9000       1295
  52.0000       1289
  52.1000       1353
  52.2000       1417
  52.3000       1331
  52.4000       1298
  52.5000       1110
  52.6000        960
  52.7000        765
  52.8000        652
  52.9000        609
  53.0000        550
  53.1000        567
  53.2000        546
  53.3000        565
  53.4000        561
  53.5000        595
  53.6000        512
  53.7000        561
  53.8000        503
  53.9000        509
  54.0000        520
  54.1000        512
  54.2000        522
  54.3000        536
  54.4000        522
  54.5000        479
  54.6000        527
  54.7000        554
  54.8000        508
  54.9000        533
  55.0000        463
  55.1000        545
  55.2000        528
  55.3000        498
  55.4000        543
  55.5000        525
  55.6000        501
  55.7000        557
  55.8000        526
  55.9000        542
  56.0000        515
  56.1000        532
  56.2000        488
  56.3000        602
  56.4000        496
  56.5000        526
  56.6000        504
  56.7000        537
  56.8000        581
  56.9000        534
  57.0000        556
  57.1000        486
  57.2000        510
  57.3000        540
  57.4000        517
  57.5000        570
  57.6000        526
  57.7000        522
  57.8000        472
  57.9000        483
  58.0000        518
  58.1000        485
  58.2000        510
  58.3000        513
  58.4000        509
  58.5000        514
  58.6000        495
  58.7000        551
  58.8000        560
  58.9000        510
  59.0000        474
  59.1000        568
  59.2000        502
  59.3000        523
  59.4000        544
  59.5000        510
  59.6000        547
  59.7000        521
  59.8000        523
  59.9000        498
  60.0000        504
  60.1000        535
  60.2000        519
  60.3000        506
  60.4000        503
  60.5000        495
  60.6000        510
  60.7000        534
  60.8000        536
  60.9000        541
  61.0000        501
  61.1000        507
  61.2000        516
  61.3000        507
  61.4000        512
  61.5000        509
  61.6000        497
  61.7000        495
  61.8000        531
  61.9000        465
  62.0000        531
  62.1000        505
  62.2000        518
  62.3000        496
  62.4000        493
  62.5000        515
  62.6000        486
  62.7000        537
  62.8000        487
  62.9000        489
  63.0000        510
  63.1000        522
  63.2000        481
  63.3000        514
  63.4000        484
  63.5000        536
  63.6000        537
  63.7000        546
  63.8000        551
  63.9000        522
  64.0000        524
  64.1000        517
  64.2000        499
  64.3000        535
  64.4000        466
  64.5000        462
  64.6000        476
  64.7000        520
  64.8000        492
  64.9000        496
  65.0000        485
  65.1000        515
  65.2000        521
  65.3000        520
  65.4000        528
  65.5000        512
  65.6000        512
  65.7000        481
  65.8000        552
  65.9000        514
  66.0000        487
  66.1000        514
  66.2000        486
  66.3000        495
  66.4000        520
  66.5000        498
  66.6000        494
  66.7000        512
  66.8000        533
  66.9000        527
  67.0000        500
  67.1000        491
  67.2000        484
  67.3000        507
  67.4000        516
  67.5000        503
  67.6000        508
  67.7000        525
  67.8000        516
  67.9000        505
  68.0000        468
  68.1000        480
  68.2000        551
  68.3000        501
  68.4000        562
  68.5000        521
  68.6000        519
  68.7000        479
  68.8000        478
  68.9000        520
  69.0000        552
  69.1000        507
  69.2000        520
  69.3000        491
  69.4000        510
  69.5000        536
  69.6000        472
  69.7000        529
  69.8000        529
  69.9000        531
  70.0000        537
  70.1000        527
  70.2000        506
  70.3000        506
  70.4000        515
  70.5000        520
  70.6000        522
  70.7000        503
  70.8000        484
  70.9000        523
  71.0000        492
  71.1000        531
  71.2000        449
  71.3000        530
  71.4000        500
  71.5000        484
  71.6000        498
  71.7000        502
  71.8000        458
  71.9000        530
  72.0000        513
  72.1000        543
  72.2000        479
  72.3000        521
  72.4000        534
  72.5000        513
  72.6000        473
  72.7000        514
  72.8000        491
  72.9000        541
  73.0000        519
  73.1000        538
  73.2000        489
  73.3000        491
  73.4000        490
  73.5000        528
  73.6000        545
  73.7000        495
  73.8000        512
  73.9000        525
  74.0000        497
  74.1000        534
  74.2000        518
  74.3000        527
  74.4000        530
  74.5000        499
  74.6000        513
  74.7000        472
  74.8000        454
  74.9000        485
  75.0000        503
  75.1000        480
  75.2000        506
  75.3000        511
  75.4000        503
  75.5000        510
  75.6000        531
  75.7000        521
  75.8000        508
  75.9000        529
  76.0000        524
  76.1000        575
  76.2000        625
  76.3000        633
  76.4000        694
  76.5000        709
  76.6000        732
  76.7000        740
  76.8000        781
  76.9000        758
  77.0000        735
  77.1000        662
  77.2000        633
  77.3000        667
  77.4000        597
  77.5000        588
  77.6000        577
  77.7000        551
  77.8000        519
  77.9000        545
  78.0000        541
  78.1000        525
  78.2000        501
  78.3000        515
  78.4000        549
  78.5000        479
  78.6000        524
  78.7000        517
  78.8000        517
  78.9000        511
  79.0000        513
  79.1000        521
  79.2000        501
  79.3000        513
  79.4000        508
  79.5000        518
  79.6000        492
  79.7000        498
  79.8000        484
  79.9000        500
  80.0000        515
  80.1000        502
  80.2000        555
  80.3000        515
  80.4000        534
  80.5000        509
  80.6000        532
  80.7000        519
  80.8000        545
  80.9000        537
  81.0000        476
  81.1000        507
  81.2000        534
  81.3000        497
  81.4000        492
  81.5000        506
  81.6000        503
  81.7000        519
  81.8000        493
  81.9000        515
  82.0000        496
  82.1000        497
  82.2000        504
  82.3000        522
  82.4000        509
  82.5000        560
  82.6000        550
  82.7000        536
  82.8000        482
  82.9000        512
  83.0000        549
  83.1000        522
  83.2000        530
  83.3000        514
  83.4000        506
  83.5000        509
  83.6000        494
  83.7000        497
  83.8000        527
  83.9000        518
  84.0000        546
  84.1000        540
  84.2000        500
  84.3000        480
  84.4000        484
  84.5000        518
  84.6000        541
  84.7000        484
  84.8000        506
  84.9000        527
  85.0000        534
  85.1000        522
  85.2000        452
  85.3000        541
  85.4000        489
  85.5000        496
  85.6000        494
  85.7000        536
  85.8000        493
  85.9000        489
  86.0000        541
  86.1000        517
  86.2000        482
  86.3000        486
  86.4000        504
  86.5000        531
  86.6000        517
  86.7000        464
  86.8000        528
  86.9000        494
  87.0000        518
  87.1000        496
  87.2000        492
  87.3000        472
  87.4000        474
  87.5000        496
  87.6000        520
  87.7000        500
  87.8000        473
  87.9000        505
  88.0000        528
  88.1000        485
  88.2000        524
  88.3000        507
  88.4000        502
  88.5000        505
  88.6000        506
  88.7000        503
  88.8000        527
  88.9000        516
  89.0000        488
  89.1000        510
  89.2000        491
  89.3000        468
  89.4000        509
  89.5000        571
  89.6000        505
  89.7000        525
  89.8000        523
  89.9000        527
  90.0000        539
  90.1000        490
  90.2000        533
  90.3000        518
  90.4000        496
  90.5000        523
  90.6000        507
  90.7000        483
  90.8000        506
  90.9000        521
  91.0000        506
  91.1000        479
  91.2000        499
  91.3000        484
  91.4000        462
  91.5000        504
  91.6000        513
  91.7000        516
  91.8000        482
  91.9000        510
  92.0000        547
  92.1000        529
  92.2000        522
  92.3000        494
  92.4000        533
  92.5000        533
  92.6000        512
  92.7000        508
  92.8000        493
  92.9000        518
  93.0000        516
  93.1000        549
  93.2000        522
  93.3000        496
  93.4000        542
  93.5000        466
  93.6000        526
  93.7000        508
  93.8000        483
  93.9000        447
  94.0000        502
  94.1000        477
  94.2000        513
  94.3000        487
  94.4000        507
  94.5000        537
  94.6000        521
  94.7000        534
  94.8000        493
  94.9000        483
  95.0000        475
  95.1000        510
  95.2000        527
  95.3000        489
  95.4000        493
  95.5000        509
  95.6000        527
  95.7000        508
  95.8000        490
  95.9000        471
  96.0000        516
  96.1000        506
  96.2000        492
  96.3000        516
  96.4000        509
  96.5000        499
  96.6000        511
  96.7000        469
  96.8000        506
  96.9000        525
  97.0000        543
  97.1000        505
  97.2000        508
  97.3000        508
  97.4000        510
  97.5000        503
  97.6000        502
  97.7000        538
  97.8000        537
  97.9000        499
  98.0000        542
  98.1000        542
  98.2000        517
  98.3000        536
  98.4000        631
  98.5000        669
  98.6000        696
  98.7000        721
  98.8000        807
  98.9000        883
  99.0000        976
  99.1000        944
  99.2000        954
  99.3000        989
  99.4000        995
  99.5000        886
  99.6000        896
  99.7000        851
  99.8000        776
  99.9000        690
 100.0000        624
 100.1000        620
 100.2000        589
 100.3000        588
 100.4000        555
 100.5000        563
 100.6000        532
 100.7000        550
 100.8000        541
 100.9000        534
 101.0000        510
 101.1000        568
 101.2000        515
 101.3000        564
 101.4000        542
 101.5000        526
 101.6000        505
 101.7000        511
 101.8000        518
 101.9000        520
 102.0000        511
 102.1000        518
 102.2000        517
 102.3000        466
 102.4000        468
 102.5000        506
 102.6000        503
 102.7000        467
 102.8000        518
 102.9000        533
 103.0000        548
 103.1000        543
 103.2000        495
 103.3000        520
 103.4000        561
 103.5000        525
 103.6000        505
 103.7000        508
 103.8000        474
 103.9000        486
 104.0000        533
 104.1000        521
 104.2000        493
 104.3000        478
 104.4000        485
 104.5000        500
 104.6000        514
 104.7000        516
 104.8000        503
 104.9000        512
 105.0000        516
 105.1000        496
 105.2000        522
 105.3000        503
 105.4000        463
 105.5000        558
 105.6000        508
 105.7000        524
 105.8000        530
 105.9000        533
 106.0000        470
 106.1000        530
 106.2000        490
 106.3000        532
 106.4000        550
 106.5000        497
 106.6000        513
 106.7000        530
 106.8000        535
 106.9000        508
 107.0000        499
 107.1000        522
 107.2000        537
 107.3000        507
 107.4000        509
 107.5000        528
 107.6000        533
 107.7000        502
 107.8000        491
 107.9000        536
 108.0000        513
 108.1000        528
 108.2000        494
 108.3000        501
 108.4000        529
 108.5000        522
 108.6000        475
 108.7000        479
 108.8000        527
 108.9000        520
 109.0000        469
 109.1000        494
 109.2000        527
 109.3000        501
 109.4000        490
 109.5000        474
 109.6000        510
 109.7000        488
 109.8000        553
 109.9000        552
 110.0000        507
 110.1000        491
 110.2000        492
 110.3000        553
 110.4000        485
 110.5000        515
 110.6000        531
 110.7000        510
 110.8000        514
 110.9000        533
 111.0000        523
 111.1000        494
 111.2000        479
 111.3000        524
 111.4000        512
 111.5000        528
 111.6000        495
 111.7000        494
 111.8000        480
 111.9000        523
 112.0000        511
 112.1000        484
 112.2000        532
 112.3000        537
 112.4000        539
 112.5000        496
 112.6000        520
 112.7000        479
 112.8000        521
 112.9000        476
 113.0000        499
 113.1000        513
 113.2000        449
 113.3000        511
 113.4000        518
 113.5000        519
 113.6000        492
 113.7000        541
 113.8000        512
 113.9000        539
 114.0000        520
 114.1000        455
 114.2000        509
 114.3000        509
 114.4000        477
 114.5000        483
 114.6000        459
 114.7000        493
 114.8000        523
 114.9000        527
 115.0000        497
 115.1000        522
 115.2000        540
 115.3000        487
 115.4000        523
 115.5000        528
 115.6000        506
 115.7000        508
 115.8000        508
 115.9000        475
 116.0000        537
 116.1000        483
 116.2000        523
 116.3000        537
 116.4000        489
 116.5000        526
 116.6000        491
 116.7000        528
 116.8000        522
 116.9000        547
 117.0000        516
 117.1000        513
 117.2000        504
 117.3000        497
 117.4000        529
 117.5000        475
 117.6000        462
 117.7000        491
 117.8000        502
 117.9000        500
 118.0000        455
 118.1000        555
 118.2000        518
 118.3000        524
 118.4000        500
 118.5000        544
 118.6000        531
 118.7000        530
 118.8000        526
 118.9000        514
 119.0000        535
 119.1000        535
 119.2000        493
 119.3000        504
 119.4000        500
 119.5000        499
 119.6000        533
 119.7000        497
 119.8000        497
 119.9000        486
 120.0000        505
 120.1000        521
 120.2000        498
 120.3000        493
 120.4000        491
 120.5000        502
 120.6000        509
 120.7000        507
 120.8000        518
 120.9000        465
 121.0000        465
 121.1000        564
 121.2000        488
 121.3000        494
 121.4000        535
 121.5000        519
 121.6000        488
 121.7000        508
 121.8000        514
 121.9000        518
 122.0000        484
 122.1000        521
 122.2000        515
 122.3000        527
 122.4000        508
 122.5000        559
 122.6000        541
 122.7000        531
 122.8000        553
 122.9000        578
 123.0000        547
 123.1000        507
 123.2000        527
 123.3000        577
 123.4000        598
 123.5000        552
 123.6000        560
 123.7000        500
 123.8000        530
 123.9000        528
 124.0000        515
 124.1000        549
 124.2000        558
 124.3000        481
 124.4000        536
 124.5000        529
 124.6000        530
 124.7000        482
 124.8000        528
 124.9000        536
 125.0000        493
 125.1000        480
 125.2000        471
 125.3000        500
 125.4000        524
 125.5000        505
 125.6000        528
 125.7000        537
 125.8000        534
 125.9000        485
 126.0000        527
 126.1000        455
 126.2000        526
 126.3000        516
 126.4000        502
 126.5000        500
 126.6000        488
 126.7000        507
 126.8000        485
 126.9000        545
 127.0000        563
 127.1000        518
 127.2000        498
 127.3000        497
 127.4000        538
 127.5000        457
 127.6000        514
[...]
 129.1000        385
 129.2000        375
 129.3000        389
 129.4000        398
 129.5000        397
 129.6000        389
 129.7000        408
 129.8000        351
 129.9000        425
 130.0000        405

; Data for range 53
_DRIVE = COUPLED
_STEPTIME = 0.2
_STEPSIZE = 0.1
_STEPMODE = C
_START = 40
_THETA = 20
_2THETA = 40
_KHI = 80
_PHI = 0
_X = 25
_Y = 0
_Z = 0
_DETECTOR = 1
; Detector type : Scintillation counter
_HV = 687
_GAIN = 80
_LLD = 0.69
_ULD = 1.866
_DETECTORSLIT = unkn
_AUX1 = 0
_AUX2 = 0
_AUX3 = 0
_TIMESTARTED = 1.03e+004
_TEMP_RATE = -1
_TEMP_DELAY = -1
_KV = 35
_MA = 40
_RANGE_WL = 1.78897
_3DPLANE = 0
_V4_ADDITIONALDETECTOR = 0
_V4_D8_DIBNUM = 1
_V4_DETECTORNAME = "Detector 1"
_V4_TTLDETECTOR = None
_V4_DETECTORTYPE = 1
_V4_DETECTORFLAGS = 524545
_V4_DETECTORHV = 687
_V4_DETECTORGAIN = 80
_V4_DETECTORLLD1 = 0.69
_V4_DETECTORWW1 = 1.176
_V4_DETECTORLLD2 = 0
_V4_DETECTORWW2 = 0
_V4_DETECTORPS = 0
_V4_DETECTORDT = 0
_V4_DETECTORPILEUPTIME = 0
_V4_COUNTERS_MASK = 1
_V4_DRIVES_MASK = 0
_V4_ENCODERS_MASK = 0
_2THETACOUNTS = 1
; 2THETA  Cnt1_D1
  40.0000        154
  40.1000        166
  40.2000        126
  40.3000        165
  40.4000        144
  40.5000        145
  40.6000        152
  40.7000        165
  40.8000        167
  40.9000        158
  41.0000        162
  41.1000        152
  41.2000        149
  41.3000        155
  41.4000        148
  41.5000        145
  41.6000        155
  41.7000        146
  41.8000        168
  41.9000        179
  42.0000        160
  42.1000        182
  42.2000        152
  42.3000        175
  42.4000        162
  42.5000        194
  42.6000        212
  42.7000        203
  42.8000        258
  42.9000        242
  43.0000        238
  43.1000        251
  43.2000        247
  43.3000        248
  43.4000        258
  43.5000        253
  43.6000        245
  43.7000        246
  43.8000        240
  43.9000        221
  44.0000        203
  44.1000        222
  44.2000        210
  44.3000        194
  44.4000        191
  44.5000        190
  44.6000        193
  44.7000        170
  44.8000        166
  44.9000        176
  45.0000        170
  45.1000        157
  45.2000        164
  45.3000        158
  45.4000        160
  45.5000        161
  45.6000        194
  45.7000        186
  45.8000        189
  45.9000        160
  46.0000        176
  46.1000        190
  46.2000        167
  46.3000        169
  46.4000        159
  46.5000        189
  46.6000        161
  46.7000        157
  46.8000        166
  46.9000        163
  47.0000        168
  47.1000        178
  47.2000        170
  47.3000        171
  47.4000        187
  47.5000        206
  47.6000        191
  47.7000        157
  47.8000        191
  47.9000        174
  48.0000        181
  48.1000        193
  48.2000        178
  48.3000        177
  48.4000        180
  48.5000        170
  48.6000        187
  48.7000        184
  48.8000        207
  48.9000        169
  49.0000        197
  49.1000        171
  49.2000        177
  49.3000        195
  49.4000        201
  49.5000        187
  49.6000        176
  49.7000        212
  49.8000        194
  49.9000        213
  50.0000        228
  50.1000        241
  50.2000        223
  50.3000        224
  50.4000        216
  50.5000        204
  50.6000        229
  50.7000        253
  50.8000        242
  50.9000        217
  51.0000        205
  51.1000        245
  51.2000        231
  51.3000        298
  51.4000        283
  51.5000        362
  51.6000        417
  51.7000        473
  51.8000        570
  51.9000        602
  52.0000        674
  52.1000        781
  52.2000        872
  52.3000        878
  52.4000        890
  52.5000        799
  52.6000        845
  52.7000        774
  52.8000        749
  52.9000        630
  53.0000        546
  53.1000        516
  53.2000        426
  53.3000        357
  53.4000        331
  53.5000        262
  53.6000        262
  53.7000        221
  53.8000        194
  53.9000        185
  54.0000        200
  54.1000        185
  54.2000        199
  54.3000        201
  54.4000        196
  54.5000        198
  54.6000        193
  54.7000        209
  54.8000        196
  54.9000        183
  55.0000        196
  55.1000        202
  55.2000        191
  55.3000        212
  55.4000        188
  55.5000        198
  55.6000        194
  55.7000        180
  55.8000        189
  55.9000        179
  56.0000        193
  56.1000        216
  56.2000        211
  56.3000        215
  56.4000        200
  56.5000        198
  56.6000        181
  56.7000        203
  56.8000        183
  56.9000        199
  57.0000        208
  57.1000        208
  57.2000        181
  57.3000        189
  57.4000        206
  57.5000        191
  57.6000        217
  57.7000        212
  57.8000        211
  57.9000        215
  58.0000        212
  58.1000        195
  58.2000        195
  58.3000        207
  58.4000        207
  58.5000        200
  58.6000        196
  58.7000        212
  58.8000        192
  58.9000        217
  59.0000        182
  59.1000        218
  59.2000        193
  59.3000        206
  59.4000        211
  59.5000        205
  59.6000        197
  59.7000        191
  59.8000        224
  59.9000        187
  60.0000        218
  60.1000        198
  60.2000        211
  60.3000        175
  60.4000        183
  60.5000        171
  60.6000        197
  60.7000        206
  60.8000        202
  60.9000        224
  61.0000        200
  61.1000        217
  61.2000        210
  61.3000        215
  61.4000        210
  61.5000        199
  61.6000        221
  61.7000        227
  61.8000        214
  61.9000        201
  62.0000        193
  62.1000        215
  62.2000        213
  62.3000        195
  62.4000        232
  62.5000        210
  62.6000        199
  62.7000        202
  62.8000        188
  62.9000        184
  63.0000        231
  63.1000        205
  63.2000        197
  63.3000        200
  63.4000        179
  63.5000        190
  63.6000        202
  63.7000        208
  63.8000        209
  63.9000        217
  64.0000        210
  64.1000        216
  64.2000        224
  64.3000        213
  64.4000        214
  64.5000        229
  64.6000        196
  64.7000        220
  64.8000        217
  64.9000        216
  65.0000        187
  65.1000        234
  65.2000        249
  65.3000        198
  65.4000        209
  65.5000        209
  65.6000        211
  65.7000        219
  65.8000        193
  65.9000        202
  66.0000        224
  66.1000        220
  66.2000        226
  66.3000        216
  66.4000        217
  66.5000        189
  66.6000        181
  66.7000        204
  66.8000        207
  66.9000        224
  67.0000        200
  67.1000        224
  67.2000        209
  67.3000        226
  67.4000        212
  67.5000        217
  67.6000        226
  67.7000        215
  67.8000        206
  67.9000        249
  68.0000        229
  68.1000        210
  68.2000        198
  68.3000        215
  68.4000        208
  68.5000        222
  68.6000        212
  68.7000        239
  68.8000        233
  68.9000        229
  69.0000        197
  69.1000        213
  69.2000        220
  69.3000        214
  69.4000        216
  69.5000        234
  69.6000        246
  69.7000        218
  69.8000        231
  69.9000        215
  70.0000        225
  70.1000        232
  70.2000        241
  70.3000        207
  70.4000        254
  70.5000        220
  70.6000        231
  70.7000        207
  70.8000        222
  70.9000        230
  71.0000        243
  71.1000        232
  71.2000        219
  71.3000        212
  71.4000        263
  71.5000        247
  71.6000        237
  71.7000        224
  71.8000        250
  71.9000        195
  72.0000        260
  72.1000        225
  72.2000        223
  72.3000        228
  72.4000        243
  72.5000        222
  72.6000        229
  72.7000        211
  72.8000        230
  72.9000        227
  73.0000        218
  73.1000        242
  73.2000        258
  73.3000        238
  73.4000        243
  73.5000        216
  73.6000        237
  73.7000        217
  73.8000        236
  73.9000        227
  74.0000        263
  74.1000        232
  74.2000        239
  74.3000        225
  74.4000        221
  74.5000        260
  74.6000        233
  74.7000        265
  74.8000        231
  74.9000        253
  75.0000        206
  75.1000        251
  75.2000        265
  75.3000        220
  75.4000        265
  75.5000        261
  75.6000        236
  75.7000        219
  75.8000        236
  75.9000        250
  76.0000        255
  76.1000        275
  76.2000        271
  76.3000        277
  76.4000        283
  76.5000        249
  76.6000        266
  76.7000        280
  76.8000        277
  76.9000        260
  77.0000        291
  77.1000        291
  77.2000        269
  77.3000        335
  77.4000        278
  77.5000        265
  77.6000        266
  77.7000        259
  77.8000        282
  77.9000        258
  78.0000        225
  78.1000        279
  78.2000        253
  78.3000        250
  78.4000        257
  78.5000        282
  78.6000        250
  78.7000        272
  78.8000        247
  78.9000        250
  79.0000        236
  79.1000        260
  79.2000        248
  79.3000        254
  79.4000        240
  79.5000        248
  79.6000        255
  79.7000        234
  79.8000        246
  79.9000        244
  80.0000        235
  80.1000        242
  80.2000        253
  80.3000        265
  80.4000        243
  80.5000        244
  80.6000        229
  80.7000        236
  80.8000        238
  80.9000        245
  81.0000        247
  81.1000        248
  81.2000        225
  81.3000        212
  81.4000        234
  81.5000        266
  81.6000        266
  81.7000        284
  81.8000        253
  81.9000        234
  82.0000        277
  82.1000        246
  82.2000        243
  82.3000        281
  82.4000        267
  82.5000        252
  82.6000        236
  82.7000        230
  82.8000        230
  82.9000        256
  83.0000        230
  83.1000        277
  83.2000        256
  83.3000        267
  83.4000        259
  83.5000        228
  83.6000        243
  83.7000        278
  83.8000        227
  83.9000        264
  84.0000        245
  84.1000        224
  84.2000        265
  84.3000        239
  84.4000        269
  84.5000        265
  84.6000        229
  84.7000        288
  84.8000        264
  84.9000        260
  85.0000        261
  85.1000        284
  85.2000        267
  85.3000        247
  85.4000        231
  85.5000        248
  85.6000        268
  85.7000        267
  85.8000        273
  85.9000        278
  86.0000        252
  86.1000        268
  86.2000        268
  86.3000        298
  86.4000        257
  86.5000        242
  86.6000        268
  86.7000        260
  86.8000        263
  86.9000        270
  87.0000        248
  87.1000        273
  87.2000        275
  87.3000        286
  87.4000        264
  87.5000        264
  87.6000        259
  87.7000        278
  87.8000        270
  87.9000        268
  88.0000        294
  88.1000        271
  88.2000        260
  88.3000        260
  88.4000        266
  88.5000        278
  88.6000        258
  88.7000        264
  88.8000        244
  88.9000        268
  89.0000        293
  89.1000        267
  89.2000        267
  89.3000        285
  89.4000        276
  89.5000        264
  89.6000        261
  89.7000        290
  89.8000        297
  89.9000        275
  90.0000        289
  90.1000        281
  90.2000        239
  90.3000        260
  90.4000        285
  90.5000        270
  90.6000        274
  90.7000        300
  90.8000        278
  90.9000        276
  91.0000        300
  91.1000        301
  91.2000        290
  91.3000        255
  91.4000        288
  91.5000        294
  91.6000        299
  91.7000        287
  91.8000        347
  91.9000        313
  92.0000        287
  92.1000        257
  92.2000        270
  92.3000        296
  92.4000        263
  92.5000        286
  92.6000        263
  92.7000        278
  92.8000        282
  92.9000        280
  93.0000        285
  93.1000        265
  93.2000        276
  93.3000        292
  93.4000        269
  93.5000        286
  93.6000        264
  93.7000        295
  93.8000        317
  93.9000        268
  94.0000        285
  94.1000        328
  94.2000        302
  94.3000        252
  94.4000        271
  94.5000        259
  94.6000        285
  94.7000        304
  94.8000        301
  94.9000        314
  95.0000        263
  95.1000        273
  95.2000        269
  95.3000        296
  95.4000        320
  95.5000        279
  95.6000        276
  95.7000        302
  95.8000        273
  95.9000        328
  96.0000        294
  96.1000        305
  96.2000        309
  96.3000        291
  96.4000        289
  96.5000        298
  96.6000        317
  96.7000        286
  96.8000        323
  96.9000        312
  97.0000        325
  97.1000        309
  97.2000        308
  97.3000        319
  97.4000        326
  97.5000        322
  97.6000        308
  97.7000        345
  97.8000        314
  97.9000        317
  98.0000        328
  98.1000        325
  98.2000        384
  98.3000        403
  98.4000        421
  98.5000        376
  98.6000        434
  98.7000        471
  98.8000        447
  98.9000        508
  99.0000        542
  99.1000        534
  99.2000        573
  99.3000        533
  99.4000        518
  99.5000        530
  99.6000        524
  99.7000        491
  99.8000        497
  99.9000        476
 100.0000        470
 100.1000        406
 100.2000        441
 100.3000        435
 100.4000        378
 100.5000        391
 100.6000        353
 100.7000        342
 100.8000        349
 100.9000        344
 101.0000        357
 101.1000        346
 101.2000        322
 101.3000        338
 101.4000        331
 101.5000        341
 101.6000        298
 101.7000        340
 101.8000        348
 101.9000        335
 102.0000        296
 102.1000        281
 102.2000        284
 102.3000        332
 102.4000        300
 102.5000        321
 102.6000        329
 102.7000        305
 102.8000        341
 102.9000        315
 103.0000        342
 103.1000        290
 103.2000        322
 103.3000        306
 103.4000        299
 103.5000        329
 103.6000        306
 103.7000        313
 103.8000        299
 103.9000        300
 104.0000        295
 104.1000        325
 104.2000        314
 104.3000        383
 104.4000        312
 104.5000        303
 104.6000        368
 104.7000        317
 104.8000        351
 104.9000        335
 105.0000        345
 105.1000        336
 105.2000        330
 105.3000        333
 105.4000        319
 105.5000        334
 105.6000        321
 105.7000        302
 105.8000        336
 105.9000        336
 106.0000        329
 106.1000        314
 106.2000        336
 106.3000        310
 106.4000        314
 106.5000        336
 106.6000        351
 106.7000        346
 106.8000        332
 106.9000        334
 107.0000        352
 107.1000        350
 107.2000        335
 107.3000        324
 107.4000        337
 107.5000        348
 107.6000        347
 107.7000        376
 107.8000        353
 107.9000        324
 108.0000        369
 108.1000        344
 108.2000        340
 108.3000        348
 108.4000        354
 108.5000        353
 108.6000        348
 108.7000        369
 108.8000        342
 108.9000        333
 109.0000        368
 109.1000        341
 109.2000        358
 109.3000        352
 109.4000        343
 109.5000        321
 109.6000        352
 109.7000        324
 109.8000        331
 109.9000        343
 110.0000        345
 110.1000        332
 110.2000        344
 110.3000        357
 110.4000        356
 110.5000        322
 110.6000        362
 110.7000        338
 110.8000        373
 110.9000        366
 111.0000        345
 111.1000        335
 111.2000        347
 111.3000        372
 111.4000        322
 111.5000        332
 111.6000        338
 111.7000        327
 111.8000        357
 111.9000        331
 112.0000        377
 112.1000        329
 112.2000        333
 112.3000        349
 112.4000        374
 112.5000        344
 112.6000        346
 112.7000        351
 112.8000        369
 112.9000        347
 113.0000        349
 113.1000        391
 113.2000        367
 113.3000        337
 113.4000        357
 113.5000        317
 113.6000        379
 113.7000        365
 113.8000        331
 113.9000        353
 114.0000        375
 114.1000        341
 114.2000        390
 114.3000        389
 114.4000        367
 114.5000        353
 114.6000        347
 114.7000        373
 114.8000        370
 114.9000        354
 115.0000        324
 115.1000        389
 115.2000        361
 115.3000        366
 115.4000        378
 115.5000        346
 115.6000        346
 115.7000        360
 115.8000        364
 115.9000        379
 116.0000        331
 116.1000        366
 116.2000        402
 116.3000        399
 116.4000        380
 116.5000        354
 116.6000        358
 116.7000        392
 116.8000        365
 116.9000        370
 117.0000        373
 117.1000        384
 117.2000        382
 117.3000        394
 117.4000        400
 117.5000        381
 117.6000        348
 117.7000        422
 117.8000        357
 117.9000        345
 118.0000        359
 118.1000        396
 118.2000        405
 118.3000        390
 118.4000        381
 118.5000        369
 118.6000        342
 118.7000        369
 118.8000        350
 118.9000        377
 119.0000        353
 119.1000        394
 119.2000        361
 119.3000        367
 119.4000        382
 119.5000        386
 119.6000        391
 119.7000        376
 119.8000        362
 119.9000        407
 120.0000        394
 120.1000        393
 120.2000        401
 120.3000        386
 120.4000        404
 120.5000        378
 120.6000        390
 120.7000        358
 120.8000        365
 120.9000        372
 121.0000        400
 121.1000        412
 121.2000        348
 121.3000        378
 121.4000        375
 121.5000        390
 121.6000        386
 121.7000        410
 121.8000        413
 121.9000        401
 122.0000        433
 122.1000        429
 122.2000        440
 122.3000        461
 122.4000        435
 122.5000        437
 122.6000        446
 122.7000        436
 122.8000        481
 122.9000        473
 123.0000        489
 123.1000        504
 123.2000        512
 123.3000        538
 123.4000        573
 123.5000        544
 123.6000        494
 123.7000        495
 123.8000        523
 123.9000        476
 124.0000        481
 124.1000        449
 124.2000        460
 124.3000        470
 124.4000        443
 124.5000        465
 124.6000        424
 124.7000        448
 124.8000        427
 124.9000        406
 125.0000        416
 125.1000        412
 125.2000        365
 125.3000        403
 125.4000        404
 125.5000        423
 125.6000        396
 125.7000        396
 125.8000        391
 125.9000        421
 126.0000        421
 126.1000        344
 126.2000        385
 126.3000        415
 126.4000        395
 126.5000        400
 126.6000        401
 126.7000        389
 126.8000        391
 126.9000        403
 127.0000        384
 127.1000        362
 127.2000        392
 127.3000        404
 127.4000        376
 127.5000        435
 127.6000        370
 127.7000        351
 127.8000        422
 127.9000        394
 128.0000        387
 128.1000        392
 128.2000        431
 128.3000        404
 128.4000        393
 128.5000        434
 128.6000        406
 128.7000        372
 128.8000        372
 128.9000        389
 129.0000        388
 129.1000        394
 129.2000        417
 129.3000        390
 129.4000        389
 129.5000        394
 129.6000        369
 129.7000        431
 129.8000        420
 129.9000        401
 130.0000        371