File: exp_dat/old/exp_2013_11_11/16pct_00L.uxd
; (content of file C:\DIFFDAT1\GIFT\MDL\Seawoong Lee\20131104_MV8\equal_area_maxkhi080_n8_2th40_130_x00y00_0L.raw)
_FILEVERSION = 3
_SAMPLE =
_+SAMPLE =
_SITE = Korea
_USER = Admin
_GONIOMETER_CODE = 20
; Goniometer : D8 theta/2theta, stage : Unknown
_SAMPLE_CHANGER_CODE = 0
_ATTACHMENTS_CODE = 0
_GONIOMETER_RADIUS = 300
_FIXED_DIVSLIT = 1
_FIXED_SAMPLESLIT = 0
_SOLLER_SLITS = 2
_FIXED_DETSLIT = 0.1
_MONOCHROMATOR = 0
; Incident beam monochromator : None
_SOLLER_SLITS_2 = 2
_THIN_FILM = N
_BETA_FILTER = Y
_FIXED_ANTISLIT = 0.6
_ANALYZER_CODE = 0
; Received beam analyzer : None
_DATEMEASURED = "07-Nov-2013 00:55:51"
_WL_UNIT = A
_WL1 = 1.78897
_WL2 = 1.79285
_WL3 = 1.62079
_WLRATIO = 0.5
_ANODE = Co
_V4_INF_CREATOR = XRDWizard
_V4_INF_CREATOR_VERSION = V2.9.0.22
_V4_INF_WIZARD_VERSION = V2.9.0.22
_V4_INF_WIZARD_ADDINS = V2.9.0.22
_V4_INF_WIZARD_DOCTYPE = XRD
_V4_INF_OSUSER = Postech
_V4_INF_USER = Admin
_V4_INF_SITE = Korea

; Data for range 1
_DRIVE = COUPLED
_STEPTIME = 0.2
_STEPSIZE = 0.1
_STEPMODE = C
_START = 40
_THETA = 20
_2THETA = 40
_KHI = 0
_PHI = 0
_X = 0
_Y = 0
_Z = 0
_DETECTOR = 1
; Detector type : Scintillation counter
_HV = 687
_GAIN = 80
_LLD = 0.69
_ULD = 1.866
_DETECTORSLIT = unkn
_AUX1 = 0
_AUX2 = 0
_AUX3 = 0
_TIMESTARTED = 28
_TEMP_RATE = -1
_TEMP_DELAY = -1
_KV = 35
_MA = 40
_RANGE_WL = 1.78897
_3DPLANE = 0
_V4_ADDITIONALDETECTOR = 0
_V4_D8_DIBNUM = 1
_V4_DETECTORNAME = "Detector 1"
_V4_TTLDETECTOR = None
_V4_DETECTORTYPE = 1
_V4_DETECTORFLAGS = 524545
_V4_DETECTORHV = 687
_V4_DETECTORGAIN = 80
_V4_DETECTORLLD1 = 0.69
_V4_DETECTORWW1 = 1.176
_V4_DETECTORLLD2 = 0
_V4_DETECTORWW2 = 0
_V4_DETECTORPS = 0
_V4_DETECTORDT = 0
_V4_DETECTORPILEUPTIME = 0
_V4_COUNTERS_MASK = 1
_V4_DRIVES_MASK = 0
_V4_ENCODERS_MASK = 0
_2THETACOUNTS = 1
; 2THETA  Cnt1_D1
  40.0000        471
  40.1000        487
  40.2000        466
  40.3000        471
  40.4000        495
  40.5000        478
  40.6000        521
  40.7000        472
  40.8000        419
  40.9000        474
  41.0000        468
  41.1000        500
  41.2000        449
  41.3000        497
  41.4000        494
  41.5000        429
  41.6000        441
  41.7000        464
  41.8000        472
  41.9000        477
  42.0000        470
  42.1000        504
  42.2000        440
  42.3000        446
  42.4000        474
  42.5000        487
  42.6000        497
  42.7000        463
  42.8000        434
  42.9000        476
  43.0000        490
  43.1000        513
  43.2000        487
  43.3000        498
  43.4000        477
  43.5000        441
  43.6000        477
  43.7000        487
  43.8000        482
  43.9000        474
  44.0000        478
  44.1000        525
  44.2000        450
  44.3000        503
  44.4000        505
  44.5000        449
  44.6000        490
  44.7000        485
  44.8000        502
  44.9000        500
  45.0000        498
  45.1000        485
  45.2000        471
  45.3000        491
  45.4000        455
  45.5000        434
  45.6000        464
  45.7000        460
  45.8000        498
  45.9000        484
  46.0000        490
  46.1000        486
  46.2000        531
  46.3000        500
  46.4000        489
  46.5000        522
  46.6000        482
  46.7000        497
  46.8000        479
  46.9000        477
  47.0000        506
  47.1000        485
  47.2000        478
  47.3000        488
  47.4000        505
  47.5000        500
  47.6000        467
  47.7000        496
  47.8000        467
  47.9000        503
  48.0000        497
  48.1000        491
  48.2000        452
  48.3000        540
  48.4000        501
  48.5000        499
  48.6000        500
  48.7000        527
  48.8000        472
  48.9000        479
  49.0000        494
  49.1000        502
  49.2000        492
  49.3000        502
  49.4000        515
  49.5000        484
  49.6000        484
  49.7000        512
  49.8000        473
  49.9000        502
  50.0000        533
  50.1000        472
  50.2000        502
  50.3000        483
  50.4000        487
  50.5000        528
  50.6000        515
  50.7000        523
  50.8000        525
  50.9000        566
  51.0000        522
  51.1000        589
  51.2000        580
  51.3000        559
  51.4000        584
  51.5000        616
  51.6000        663
  51.7000        831
  51.8000       1027
  51.9000       1124
  52.0000       1263
  52.1000       1202
  52.2000       1257
  52.3000       1153
  52.4000       1113
  52.5000       1127
  52.6000        911
  52.7000        737
  52.8000        578
  52.9000        550
  53.0000        542
  53.1000        538
  53.2000        528
  53.3000        521
  53.4000        533
  53.5000        478
  53.6000        518
  53.7000        521
  53.8000        498
  53.9000        556
  54.0000        507
  54.1000        532
  54.2000        496
  54.3000        489
  54.4000        508
  54.5000        507
  54.6000        503
  54.7000        519
  54.8000        533
  54.9000        517
  55.0000        465
  55.1000        528
  55.2000        507
  55.3000        529
  55.4000        533
  55.5000        531
  55.6000        553
  55.7000        563
  55.8000        505
  55.9000        510
  56.0000        517
  56.1000        456
  56.2000        542
  56.3000        472
  56.4000        517
  56.5000        549
  56.6000        541
  56.7000        507
  56.8000        502
  56.9000        495
  57.0000        461
  57.1000        459
  57.2000        536
  57.3000        517
  57.4000        473
  57.5000        479
  57.6000        513
  57.7000        472
  57.8000        555
  57.9000        482
  58.0000        499
  58.1000        498
  58.2000        516
  58.3000        507
  58.4000        538
  58.5000        518
  58.6000        480
  58.7000        494
  58.8000        512
  58.9000        484
  59.0000        516
  59.1000        544
  59.2000        543
  59.3000        558
  59.4000        523
  59.5000        551
  59.6000        553
  59.7000        538
  59.8000        530
  59.9000        521
  60.0000        476
  60.1000        499
  60.2000        529
  60.3000        517
  60.4000        472
  60.5000        508
  60.6000        491
  60.7000        539
  60.8000        539
  60.9000        521
  61.0000        509
  61.1000        482
  61.2000        534
  61.3000        532
  61.4000        525
  61.5000        527
  61.6000        520
  61.7000        536
  61.8000        516
  61.9000        491
  62.0000        493
  62.1000        508
  62.2000        446
  62.3000        505
  62.4000        513
  62.5000        499
  62.6000        502
  62.7000        461
  62.8000        526
  62.9000        508
  63.0000        520
  63.1000        516
  63.2000        563
  63.3000        491
  63.4000        506
  63.5000        538
  63.6000        495
  63.7000        546
  63.8000        499
  63.9000        523
  64.0000        492
  64.1000        483
  64.2000        503
  64.3000        552
  64.4000        519
  64.5000        517
  64.6000        515
  64.7000        547
  64.8000        511
  64.9000        519
  65.0000        474
  65.1000        505
  65.2000        486
  65.3000        502
  65.4000        490
  65.5000        495
  65.6000        523
  65.7000        504
  65.8000        507
  65.9000        491
  66.0000        542
  66.1000        541
  66.2000        522
  66.3000        517
  66.4000        480
  66.5000        525
  66.6000        516
  66.7000        570
  66.8000        485
  66.9000        504
  67.0000        536
  67.1000        499
  67.2000        515
  67.3000        529
  67.4000        554
  67.5000        493
  67.6000        518
  67.7000        543
  67.8000        495
  67.9000        508
  68.0000        510
  68.1000        519
  68.2000        523
  68.3000        514
  68.4000        459
  68.5000        453
  68.6000        484
  68.7000        521
  68.8000        534
  68.9000        505
  69.0000        547
  69.1000        509
  69.2000        458
  69.3000        512
  69.4000        531
  69.5000        500
  69.6000        468
  69.7000        530
  69.8000        554
  69.9000        504
  70.0000        534
  70.1000        476
  70.2000        506
  70.3000        476
  70.4000        523
  70.5000        491
  70.6000        481
  70.7000        475
  70.8000        485
  70.9000        554
  71.0000        493
  71.1000        557
  71.2000        558
  71.3000        502
  71.4000        480
  71.5000        520
  71.6000        492
  71.7000        511
  71.8000        555
  71.9000        500
  72.0000        519
  72.1000        528
  72.2000        545
  72.3000        533
  72.4000        509
  72.5000        493
  72.6000        474
  72.7000        505
  72.8000        482
  72.9000        481
  73.0000        510
  73.1000        494
  73.2000        502
  73.3000        492
  73.4000        548
  73.5000        495
  73.6000        515
  73.7000        528
  73.8000        516
  73.9000        539
  74.0000        534
  74.1000        498
  74.2000        488
  74.3000        491
  74.4000        547
  74.5000        547
  74.6000        517
  74.7000        507
  74.8000        511
  74.9000        506
  75.0000        489
  75.1000        503
  75.2000        505
  75.3000        523
  75.4000        491
  75.5000        525
  75.6000        531
  75.7000        524
  75.8000        541
  75.9000        504
  76.0000        537
  76.1000        563
  76.2000        568
  76.3000        631
  76.4000        734
  76.5000        789
  76.6000        793
  76.7000        918
  76.8000        974
  76.9000        900
  77.0000        915
  77.1000        891
  77.2000        861
  77.3000        871
  77.4000        807
  77.5000        647
  77.6000        634
  77.7000        575
  77.8000        572
  77.9000        568
  78.0000        582
  78.1000        518
  78.2000        526
  78.3000        510
  78.4000        555
  78.5000        556
  78.6000        482
  78.7000        539
  78.8000        545
  78.9000        548
  79.0000        494
  79.1000        537
  79.2000        532
  79.3000        541
  79.4000        504
  79.5000        538
  79.6000        524
  79.7000        484
  79.8000        548
  79.9000        495
  80.0000        505
  80.1000        515
  80.2000        486
  80.3000        529
  80.4000        524
  80.5000        517
  80.6000        527
  80.7000        522
  80.8000        523
  80.9000        560
  81.0000        519
  81.1000        496
  81.2000        489
  81.3000        467
  81.4000        521
  81.5000        487
  81.6000        477
  81.7000        487
  81.8000        514
  81.9000        546
  82.0000        529
  82.1000        546
  82.2000        534
  82.3000        513
  82.4000        523
  82.5000        536
  82.6000        533
  82.7000        541
  82.8000        541
  82.9000        509
  83.0000        531
  83.1000        474
  83.2000        542
  83.3000        549
  83.4000        518
  83.5000        510
  83.6000        553
  83.7000        480
  83.8000        481
  83.9000        523
  84.0000        522
  84.1000        492
  84.2000        467
  84.3000        487
  84.4000        511
  84.5000        471
  84.6000        497
  84.7000        511
  84.8000        511
  84.9000        534
  85.0000        536
  85.1000        531
  85.2000        498
  85.3000        522
  85.4000        481
  85.5000        501
  85.6000        528
  85.7000        547
  85.8000        533
  85.9000        510
  86.0000        488
  86.1000        508
  86.2000        506
  86.3000        491
  86.4000        514
  86.5000        477
  86.6000        507
  86.7000        480
  86.8000        540
  86.9000        488
  87.0000        525
  87.1000        498
  87.2000        487
  87.3000        492
  87.4000        505
  87.5000        509
  87.6000        510
  87.7000        533
  87.8000        522
  87.9000        547
  88.0000        534
  88.1000        520
  88.2000        519
  88.3000        519
  88.4000        502
  88.5000        530
  88.6000        547
  88.7000        540
  88.8000        566
  88.9000        541
  89.0000        547
  89.1000        522
  89.2000        554
  89.3000        556
  89.4000        567
  89.5000        553
  89.6000        543
  89.7000        534
  89.8000        550
  89.9000        575
  90.0000        576
  90.1000        510
  90.2000        527
  90.3000        528
  90.4000        546
  90.5000        510
  90.6000        514
  90.7000        513
  90.8000        541
  90.9000        520
  91.0000        483
  91.1000        533
  91.2000        525
  91.3000        507
  91.4000        525
  91.5000        526
  91.6000        547
  91.7000        553
  91.8000        515
  91.9000        504
  92.0000        512
  92.1000        523
  92.2000        490
  92.3000        523
  92.4000        465
  92.5000        473
  92.6000        545
  92.7000        516
  92.8000        535
  92.9000        528
  93.0000        509
  93.1000        496
  93.2000        481
  93.3000        541
  93.4000        551
  93.5000        513
  93.6000        490
  93.7000        500
  93.8000        540
  93.9000        524
  94.0000        555
  94.1000        508
  94.2000        534
  94.3000        543
  94.4000        523
  94.5000        495
  94.6000        525
  94.7000        522
  94.8000        524
  94.9000        553
  95.0000        485
  95.1000        484
  95.2000        539
  95.3000        526
  95.4000        498
  95.5000        553
  95.6000        549
  95.7000        489
  95.8000        533
  95.9000        525
  96.0000        536
  96.1000        562
  96.2000        539
  96.3000        533
  96.4000        520
  96.5000        508
  96.6000        517
  96.7000        505
  96.8000        540
  96.9000        498
  97.0000        512
  97.1000        555
  97.2000        522
  97.3000        545
  97.4000        578
  97.5000        534
  97.6000        530
  97.7000        531
  97.8000        530
  97.9000        542
  98.0000        610
  98.1000        608
  98.2000        590
  98.3000        597
  98.4000        627
  98.5000        666
  98.6000        703
  98.7000        837
  98.8000        973
  98.9000       1179
  99.0000       1263
  99.1000       1393
  99.2000       1505
  99.3000       1497
  99.4000       1499
  99.5000       1448
  99.6000       1381
  99.7000       1216
  99.8000       1066
  99.9000        854
 100.0000        777
 100.1000        701
 100.2000        636
 100.3000        586
 100.4000        589
 100.5000        536
 100.6000        574
 100.7000        533
 100.8000        556
 100.9000        561
 101.0000        534
 101.1000        532
 101.2000        541
 101.3000        484
 101.4000        558
 101.5000        571
 101.6000        511
 101.7000        536
 101.8000        548
 101.9000        550
 102.0000        479
 102.1000        513
 102.2000        534
 102.3000        510
 102.4000        503
 102.5000        522
 102.6000        536
 102.7000        553
 102.8000        519
 102.9000        525
 103.0000        489
 103.1000        546
 103.2000        507
 103.3000        506
 103.4000        525
 103.5000        458
 103.6000        553
 103.7000        485
 103.8000        514
 103.9000        499
 104.0000        522
 104.1000        547
 104.2000        497
 104.3000        507
 104.4000        535
 104.5000        514
 104.6000        508
 104.7000        527
 104.8000        475
 104.9000        519
 105.0000        549
 105.1000        507
 105.2000        510
 105.3000        530
 105.4000        539
 105.5000        543
 105.6000        481
 105.7000        498
 105.8000        510
 105.9000        514
 106.0000        507
 106.1000        495
 106.2000        518
 106.3000        522
 106.4000        503
 106.5000        485
 106.6000        506
 106.7000        546
 106.8000        553
 106.9000        487
 107.0000        543
 107.1000        476
 107.2000        516
 107.3000        504
 107.4000        525
 107.5000        466
 107.6000        505
 107.7000        499
 107.8000        508
 107.9000        519
 108.0000        565
 108.1000        507
 108.2000        552
 108.3000        583
 108.4000        499
 108.5000        464
 108.6000        524
 108.7000        511
 108.8000        540
 108.9000        549
 109.0000        527
 109.1000        489
 109.2000        503
 109.3000        532
 109.4000        466
 109.5000        523
 109.6000        528
 109.7000        524
 109.8000        530
 109.9000        482
 110.0000        510
 110.1000        511
 110.2000        474
 110.3000        497
 110.4000        521
 110.5000        531
 110.6000        511
 110.7000        510
 110.8000        509
 110.9000        559
 111.0000        518
 111.1000        561
 111.2000        589
 111.3000        534
 111.4000        530
 111.5000        554
 111.6000        554
 111.7000        515
 111.8000        536
 111.9000        535
 112.0000        516
 112.1000        472
 112.2000        499
 112.3000        525
 112.4000        542
 112.5000        527
 112.6000        530
 112.7000        511
 112.8000        526
 112.9000        520
 113.0000        501
 113.1000        495
 113.2000        504
 113.3000        484
 113.4000        550
 113.5000        490
 113.6000        514
 113.7000        529
 113.8000        571
 113.9000        527
 114.0000        538
 114.1000        488
 114.2000        533
 114.3000        515
 114.4000        533
 114.5000        495
 114.6000        524
 114.7000        512
 114.8000        549
 114.9000        526
 115.0000        498
 115.1000        533
 115.2000        487
 115.3000        506
 115.4000        497
 115.5000        516
 115.6000        537
 115.7000        499
 115.8000        512
 115.9000        519
 116.0000        512
 116.1000        560
 116.2000        506
 116.3000        508
 116.4000        518
 116.5000        476
 116.6000        493
 116.7000        494
 116.8000        462
 116.9000        495
 117.0000        534
 117.1000        525
 117.2000        558
 117.3000        507
 117.4000        525
 117.5000        529
 117.6000        496
 117.7000        527
 117.8000        510
 117.9000        495
 118.0000        569
 118.1000        481
 118.2000        525
 118.3000        515
 118.4000        476
 118.5000        490
 118.6000        546
 118.7000        525
 118.8000        514
 118.9000        483
 119.0000        527
 119.1000        505
 119.2000        490
 119.3000        492
 119.4000        530
 119.5000        518
 119.6000        491
 119.7000        513
 119.8000        526
 119.9000        539
 120.0000        514
 120.1000        540
 120.2000        473
 120.3000        493
 120.4000        522
 120.5000        494
 120.6000        508
 120.7000        534
 120.8000        502
 120.9000        492
 121.0000        476
 121.1000        507
 121.2000        538
 121.3000        477
 121.4000        450
 121.5000        497
 121.6000        523
 121.7000        493
 121.8000        528
 121.9000        495
 122.0000        506
 122.1000        524
 122.2000        501
 122.3000        512
 122.4000        554
 122.5000        530
 122.6000        527
 122.7000        551
 122.8000        549
 122.9000        578
 123.0000        534
 123.1000        589
 123.2000        584
 123.3000        588
 123.4000        594
 123.5000        586
 123.6000        586
 123.7000        606
 123.8000        596
 123.9000        593
 124.0000        554
 124.1000        535
 124.2000        566
 124.3000        513
 124.4000        524
 124.5000        520
 124.6000        538
 124.7000        530
 124.8000        519
 124.9000        516
 125.0000        500
 125.1000        504
 125.2000        473
 125.3000        540
 125.4000        526
 125.5000        519
 125.6000        514
 125.7000        507
 125.8000        506
 125.9000        520
 126.0000        530
 126.1000        512
 126.2000        458
 126.3000        490
 126.4000        501
 126.5000        491
 126.6000        516
 126.7000        485
 126.8000        490
 126.9000        527
 127.0000        531
 127.1000        506
 127.2000        483
 127.3000        501
 127.4000        512
 127.5000        528
 127.6000        508
 127.7000        508
 127.8000        518
 127.9000        482
 128.0000        522
 128.1000        517
 128.2000        536
 128.3000        520
 128.4000        502
 128.5000        495
 128.6000        493
 128.7000        504
 128.8000        513
 128.9000        519
 129.0000        502
 129.1000        529
 129.2000        516
 129.3000        524
 129.4000        502
 129.5000        534
 129.6000        523
 129.7000        525
 129.8000        494
 129.9000        502
 130.0000        549

; Data for range 2
_DRIVE = COUPLED
_STEPTIME = 0.2
_STEPSIZE = 0.1
_STEPMODE = C
_START = 40
_THETA = 20
_2THETA = 40
_KHI = 10.5
_PHI = 60
_X = 0
_Y = 0
_Z = 0
_DETECTOR = 1
; Detector type : Scintillation counter
_HV = 687
_GAIN = 80
_LLD = 0.69
_ULD = 1.866
_DETECTORSLIT = unkn
_AUX1 = 0
_AUX2 = 0
_AUX3 = 0
_TIMESTARTED = 225
_TEMP_RATE = -1
_TEMP_DELAY = -1
_KV = 35
_MA = 40
_RANGE_WL = 1.78897
_3DPLANE = 0
_V4_ADDITIONALDETECTOR = 0
_V4_D8_DIBNUM = 1
_V4_DETECTORNAME = "Detector 1"
_V4_TTLDETECTOR = None
_V4_DETECTORTYPE = 1
_V4_DETECTORFLAGS = 524545
_V4_DETECTORHV = 687
_V4_DETECTORGAIN = 80
_V4_DETECTORLLD1 = 0.69
_V4_DETECTORWW1 = 1.176
_V4_DETECTORLLD2 = 0
_V4_DETECTORWW2 = 0
_V4_DETECTORPS = 0
_V4_DETECTORDT = 0
_V4_DETECTORPILEUPTIME = 0
_V4_COUNTERS_MASK = 1
_V4_DRIVES_MASK = 0
_V4_ENCODERS_MASK = 0
_2THETACOUNTS = 1
; 2THETA  Cnt1_D1
  40.0000        499
  40.1000        526
  40.2000        531
  40.3000        533
  40.4000        504
  40.5000        540
  40.6000        493
  40.7000        547
  40.8000        546
  40.9000        543
  41.0000        528
  41.1000        530
  41.2000        569
  41.3000        531
  41.4000        540
  41.5000        535
  41.6000        505
  41.7000        489
  41.8000        518
  41.9000        506
  42.0000        549
  42.1000        508
  42.2000        540
  42.3000        498
  42.4000        501
  42.5000        550
  42.6000        554
  42.7000        526
  42.8000        522
  42.9000        539
  43.0000        539
  43.1000        544
  43.2000        502
  43.3000        530
  43.4000        507
  43.5000        505
  43.6000        468
  43.7000        535
  43.8000        518
  43.9000        498
  44.0000        535
  44.1000        525
  44.2000        520
  44.3000        523
  44.4000        548
  44.5000        535
  44.6000        535
  44.7000        515
  44.8000        556
  44.9000        517
  45.0000        508
  45.1000        475
  45.2000        530
  45.3000        501
  45.4000        490
  45.5000        560
  45.6000        489
  45.7000        488
  45.8000        490
  45.9000        535
  46.0000        510
  46.1000        527
  46.2000        518
  46.3000        523
  46.4000        518
  46.5000        583
  46.6000        515
  46.7000        501
  46.8000        534
  46.9000        522
  47.0000        526
  47.1000        567
  47.2000        535
  47.3000        515
  47.4000        484
  47.5000        510
  47.6000        520
  47.7000        557
  47.8000        534
  47.9000        525
  48.0000        533
  48.1000        500
  48.2000        542
  48.3000        503
  48.4000        516
  48.5000        507
  48.6000        563
  48.7000        562
  48.8000        532
  48.9000        492
  49.0000        531
  49.1000        484
  49.2000        526
  49.3000        492
  49.4000        525
  49.5000        533
  49.6000        556
  49.7000        500
  49.8000        499
  49.9000        534
  50.0000        535
  50.1000        571
  50.2000        494
  50.3000        515
  50.4000        537
  50.5000        545
  50.6000        594
  50.7000        577
  50.8000        558
  50.9000        572
  51.0000        567
  51.1000        570
  51.2000        651
  51.3000        628
  51.4000        692
  51.5000        670
  51.6000        829
  51.7000       1068
  51.8000       1219
  51.9000       1294
  52.0000       1423
  52.1000       1531
  52.2000       1531
  52.3000       1414
  52.4000       1444
  52.5000       1303
  52.6000       1081
  52.7000        859
  52.8000        666
  52.9000        585
  53.0000        582
  53.1000        561
  53.2000        568
  53.3000        533
  53.4000        529
  53.5000        523
  53.6000        506
  53.7000        557
  53.8000        566
  53.9000        602
  54.0000        545
  54.1000        516
  54.2000        506
  54.3000        535
  54.4000        548
  54.5000        550
  54.6000        547
  54.7000        572
  54.8000        501
  54.9000        563
  55.0000        538
  55.1000        544
  55.2000        515
  55.3000        510
  55.4000        460
  55.5000        534
  55.6000        509
  55.7000        530
  55.8000        581
  55.9000        542
  56.0000        497
  56.1000        536
  56.2000        534
  56.3000        571
  56.4000        549
  56.5000        542
  56.6000        550
  56.7000        464
  56.8000        487
  56.9000        518
  57.0000        536
  57.1000        527
  57.2000        493
  57.3000        535
  57.4000        503
  57.5000        516
  57.6000        500
  57.7000        511
  57.8000        526
  57.9000        488
  58.0000        502
  58.1000        473
  58.2000        530
  58.3000        495
  58.4000        541
  58.5000        557
  58.6000        567
  58.7000        510
  58.8000        538
  58.9000        512
  59.0000        556
  59.1000        528
  59.2000        513
  59.3000        548
  59.4000        532
  59.5000        534
  59.6000        527
  59.7000        538
  59.8000        532
  59.9000        584
  60.0000        557
  60.1000        522
  60.2000        511
  60.3000        512
  60.4000        520
  60.5000        544
  60.6000        530
  60.7000        522
  60.8000        503
  60.9000        503
  61.0000        532
  61.1000        500
  61.2000        478
  61.3000        536
  61.4000        547
  61.5000        524
  61.6000        529
  61.7000        534
  61.8000        501
  61.9000        519
  62.0000        521
  62.1000        524
  62.2000        542
  62.3000        485
  62.4000        507
  62.5000        499
  62.6000        535
  62.7000        493
  62.8000        498
  62.9000        504
  63.0000        536
  63.1000        502
  63.2000        516
  63.3000        498
  63.4000        531
  63.5000        496
  63.6000        515
  63.7000        487
  63.8000        495
  63.9000        517
  64.0000        496
  64.1000        493
  64.2000        496
  64.3000        525
  64.4000        534
  64.5000        540
  64.6000        506
  64.7000        537
  64.8000        505
  64.9000        534
  65.0000        482
  65.1000        513
  65.2000        492
  65.3000        507
  65.4000        517
  65.5000        477
  65.6000        560
  65.7000        522
  65.8000        533
  65.9000        543
  66.0000        486
  66.1000        534
  66.2000        505
  66.3000        505
  66.4000        507
  66.5000        517
  66.6000        508
  66.7000        526
  66.8000        518
  66.9000        463
  67.0000        537
  67.1000        503
  67.2000        487
  67.3000        510
  67.4000        489
  67.5000        544
  67.6000        507
  67.7000        500
  67.8000        489
  67.9000        516
  68.0000        533
  68.1000        500
  68.2000        530
  68.3000        488
  68.4000        529
  68.5000        503
  68.6000        570
  68.7000        521
  68.8000        534
  68.9000        522
  69.0000        496
  69.1000        517
  69.2000        510
  69.3000        489
  69.4000        488
  69.5000        508
  69.6000        495
  69.7000        519
  69.8000        512
  69.9000        519
  70.0000        534
  70.1000        526
  70.2000        533
  70.3000        486
  70.4000        508
  70.5000        540
  70.6000        539
  70.7000        522
  70.8000        503
  70.9000        550
  71.0000        550
  71.1000        550
  71.2000        482
  71.3000        531
  71.4000        511
  71.5000        531
  71.6000        530
  71.7000        520
  71.8000        488
  71.9000        586
  72.0000        521
  72.1000        523
  72.2000        488
  72.3000        536
  72.4000        513
  72.5000        523
  72.6000        487
  72.7000        530
  72.8000        531
  72.9000        507
  73.0000        499
  73.1000        428
  73.2000        500
  73.3000        488
  73.4000        505
  73.5000        480
  73.6000        529
  73.7000        534
  73.8000        515
  73.9000        500
  74.0000        480
  74.1000        515
  74.2000        546
  74.3000        545
  74.4000        482
  74.5000        489
  74.6000        526
  74.7000        520
  74.8000        510
  74.9000        511
  75.0000        505
  75.1000        538
  75.2000        488
  75.3000        528
  75.4000        506
  75.5000        507
  75.6000        510
  75.7000        558
  75.8000        555
  75.9000        490
  76.0000        510
  76.1000        521
  76.2000        528
  76.3000        581
  76.4000        623
  76.5000        673
  76.6000        685
  76.7000        717
  76.8000        716
  76.9000        770
  77.0000        715
  77.1000        708
  77.2000        660
  77.3000        713
  77.4000        608
  77.5000        541
  77.6000        566
  77.7000        530
  77.8000        526
  77.9000        511
  78.0000        569
  78.1000        523
  78.2000        549
  78.3000        540
  78.4000        483
  78.5000        551
  78.6000        526
  78.7000        500
  78.8000        529
  78.9000        528
  79.0000        516
  79.1000        488
  79.2000        515
  79.3000        501
  79.4000        543
  79.5000        502
  79.6000        497
  79.7000        551
  79.8000        499
  79.9000        484
  80.0000        512
  80.1000        494
  80.2000        501
  80.3000        497
  80.4000        521
  80.5000        492
  80.6000        500
  80.7000        549
  80.8000        503
  80.9000        505
  81.0000        528
  81.1000        524
  81.2000        512
  81.3000        550
  81.4000        548
  81.5000        508
  81.6000        519
  81.7000        478
  81.8000        514
  81.9000        532
  82.0000        508
  82.1000        531
  82.2000        506
  82.3000        481
  82.4000        521
  82.5000        526
  82.6000        538
  82.7000        505
  82.8000        528
  82.9000        526
  83.0000        521
  83.1000        504
  83.2000        481
  83.3000        544
  83.4000        463
  83.5000        485
  83.6000        499
  83.7000        502
  83.8000        512
  83.9000        515
  84.0000        535
  84.1000        558
  84.2000        509
  84.3000        497
  84.4000        505
  84.5000        480
  84.6000        515
  84.7000        508
  84.8000        520
  84.9000        497
  85.0000        485
  85.1000        488
  85.2000        504
  85.3000        527
  85.4000        533
  85.5000        539
  85.6000        492
  85.7000        546
  85.8000        500
  85.9000        490
  86.0000        531
  86.1000        469
  86.2000        552
  86.3000        499
  86.4000        517
  86.5000        501
  86.6000        528
  86.7000        515
  86.8000        515
  86.9000        471
  87.0000        483
  87.1000        513
  87.2000        480
  87.3000        509
  87.4000        516
  87.5000        528
  87.6000        515
  87.7000        526
  87.8000        518
  87.9000        519
  88.0000        484
  88.1000        532
  88.2000        506
  88.3000        521
  88.4000        491
  88.5000        551
  88.6000        549
  88.7000        549
  88.8000        537
  88.9000        548
  89.0000        532
  89.1000        519
  89.2000        539
  89.3000        512
  89.4000        559
  89.5000        499
  89.6000        508
  89.7000        532
  89.8000        508
  89.9000        601
  90.0000        519
  90.1000        529
  90.2000        521
  90.3000        540
  90.4000        503
  90.5000        489
  90.6000        560
  90.7000        548
  90.8000        570
  90.9000        488
  91.0000        559
  91.1000        513
  91.2000        532
  91.3000        510
  91.4000        505
  91.5000        547
  91.6000        505
  91.7000        516
  91.8000        503
  91.9000        487
  92.0000        527
  92.1000        485
  92.2000        547
  92.3000        534
  92.4000        500
  92.5000        485
  92.6000        539
  92.7000        536
  92.8000        548
  92.9000        510
  93.0000        480
  93.1000        518
  93.2000        512
  93.3000        564
  93.4000        491
  93.5000        551
  93.6000        504
  93.7000        544
  93.8000        533
  93.9000        522
  94.0000        522
  94.1000        528
  94.2000        555
  94.3000        477
  94.4000        476
  94.5000        507
  94.6000        499
  94.7000        483
  94.8000        530
  94.9000        524
  95.0000        516
  95.1000        495
  95.2000        528
  95.3000        496
  95.4000        548
  95.5000        513
  95.6000        512
  95.7000        523
  95.8000        508
  95.9000        524
  96.0000        495
  96.1000        538
  96.2000        504
  96.3000        483
  96.4000        512
  96.5000        506
  96.6000        491
  96.7000        531
  96.8000        490
  96.9000        490
  97.0000        514
  97.1000        502
  97.2000        530
  97.3000        486
  97.4000        549
  97.5000        541
  97.6000        522
  97.7000        518
  97.8000        552
  97.9000        507
  98.0000        552
  98.1000        545
  98.2000        550
  98.3000        564
  98.4000        595
  98.5000        608
  98.6000        618
  98.7000        649
  98.8000        881
  98.9000        889
  99.0000        964
  99.1000       1056
  99.2000       1112
  99.3000       1095
  99.4000       1075
  99.5000       1116
  99.6000       1046
  99.7000        952
  99.8000        794
  99.9000        735
 100.0000        666
 100.1000        643
 100.2000        608
 100.3000        547
 100.4000        537
 100.5000        544
 100.6000        504
 100.7000        536
 100.8000        534
 100.9000        509
 101.0000        568
 101.1000        542
 101.2000        500
 101.3000        489
 101.4000        522
 101.5000        545
 101.6000        541
 101.7000        510
 101.8000        518
 101.9000        504
 102.0000        516
 102.1000        524
 102.2000        509
 102.3000        519
 102.4000        533
 102.5000        551
 102.6000        492
 102.7000        520
 102.8000        546
 102.9000        545
 103.0000        554
 103.1000        492
 103.2000        545
 103.3000        519
 103.4000        558
 103.5000        525
 103.6000        531
 103.7000        471
 103.8000        560
 103.9000        515
 104.0000        458
 104.1000        466
 104.2000        511
 104.3000        564
 104.4000        483
 104.5000        508
 104.6000        545
 104.7000        521
 104.8000        530
 104.9000        501
 105.0000        512
 105.1000        505
 105.2000        518
 105.3000        508
 105.4000        521
 105.5000        524
 105.6000        519
 105.7000        469
 105.8000        536
 105.9000        531
 106.0000        491
 106.1000        469
 106.2000        515
 106.3000        530
 106.4000        525
 106.5000        535
 106.6000        538
 106.7000        547
 106.8000        502
 106.9000        469
 107.0000        521
 107.1000        489
 107.2000        501
 107.3000        495
 107.4000        528
 107.5000        502
 107.6000        515
 107.7000        523
 107.8000        541
 107.9000        504
 108.0000        494
 108.1000        490
 108.2000        524
 108.3000        507
 108.4000        515
 108.5000        512
 108.6000        479
 108.7000        523
 108.8000        519
 108.9000        550
 109.0000        494
 109.1000        530
 109.2000        513
 109.3000        493
 109.4000        544
 109.5000        528
 109.6000        547
 109.7000        518
 109.8000        506
 109.9000        506
 110.0000        538
 110.1000        512
 110.2000        550
 110.3000        536
 110.4000        535
 110.5000        526
 110.6000        519
 110.7000        557
 110.8000        532
 110.9000        523
 111.0000        512
 111.1000        516
 111.2000        552
 111.3000        545
 111.4000        513
 111.5000        496
 111.6000        545
 111.7000        547
 111.8000        532
 111.9000        507
 112.0000        516
 112.1000        542
 112.2000        514
 112.3000        492
 112.4000        543
 112.5000        493
 112.6000        554
 112.7000        534
 112.8000        544
 112.9000        579
 113.0000        508
 113.1000        528
 113.2000        527
 113.3000        505
 113.4000        528
 113.5000        520
 113.6000        527
 113.7000        575
 113.8000        528
 113.9000        524
 114.0000        506
 114.1000        496
 114.2000        471
 114.3000        524
 114.4000        495
 114.5000        465
 114.6000        509
 114.7000        526
 114.8000        505
 114.9000        518
 115.0000        477
 115.1000        496
 115.2000        470
 115.3000        525
 115.4000        493
 115.5000        513
 115.6000        520
 115.7000        499
 115.8000        527
 115.9000        493
 116.0000        519
 116.1000        515
 116.2000        531
 116.3000        489
 116.4000        567
 116.5000        547
 116.6000        487
 116.7000        545
 116.8000        516
 116.9000        558
 117.0000        502
 117.1000        521
 117.2000        490
 117.3000        467
 117.4000        501
 117.5000        547
 117.6000        517
 117.7000        457
 117.8000        537
 117.9000        504
 118.0000        515
 118.1000        491
 118.2000        538
 118.3000        512
 118.4000        533
 118.5000        510
 118.6000        528
 118.7000        524
 118.8000        492
 118.9000        535
 119.0000        511
 119.1000        502
 119.2000        485
 119.3000        526
 119.4000        469
 119.5000        503
 119.6000        535
 119.7000        503
 119.8000        535
 119.9000        503
 120.0000        493
 120.1000        534
 120.2000        489
 120.3000        531
 120.4000        477
 120.5000        496
 120.6000        533
 120.7000        502
 120.8000        511
 120.9000        477
 121.0000        504
 121.1000        508
 121.2000        537
 121.3000        563
 121.4000        519
 121.5000        502
 121.6000        515
 121.7000        517
 121.8000        473
 121.9000        508
 122.0000        501
 122.1000        540
 122.2000        524
 122.3000        486
 122.4000        522
 122.5000        518
 122.6000        533
 122.7000        593
 122.8000        556
 122.9000        578
 123.0000        589
 123.1000        572
 123.2000        566
 123.3000        620
 123.4000        611
 123.5000        617
 123.6000        624
 123.7000        571
 123.8000        614
 123.9000        538
 124.0000        579
 124.1000        579
 124.2000        552
 124.3000        508
 124.4000        520
 124.5000        519
 124.6000        490
 124.7000        549
 124.8000        538
 124.9000        513
 125.0000        513
 125.1000        534
 125.2000        525
 125.3000        511
 125.4000        496
 125.5000        505
 125.6000        506
 125.7000        532
 125.8000        510
 125.9000        494
 126.0000        505
 126.1000        536
 126.2000        507
 126.3000        512
 126.4000        556
 126.5000        508
 126.6000        520
 126.7000        538
 126.8000        475
 126.9000        521
 127.0000        528
 127.1000        483
 127.2000        531
 127.3000        477
 127.4000        535
 127.5000        515
 127.6000        508
[...]
 129.1000        376
 129.2000        329
 129.3000        379
 129.4000        390
 129.5000        360
 129.6000        387
 129.7000        411
 129.8000        388
 129.9000        352
 130.0000        369

; Data for range 53
_DRIVE = COUPLED
_STEPTIME = 0.2
_STEPSIZE = 0.1
_STEPMODE = C
_START = 40
_THETA = 20
_2THETA = 40
_KHI = 80
_PHI = 0
_X = 0
_Y = 0
_Z = 0
_DETECTOR = 1
; Detector type : Scintillation counter
_HV = 687
_GAIN = 80
_LLD = 0.69
_ULD = 1.866
_DETECTORSLIT = unkn
_AUX1 = 0
_AUX2 = 0
_AUX3 = 0
_TIMESTARTED = 1.03e+004
_TEMP_RATE = -1
_TEMP_DELAY = -1
_KV = 35
_MA = 40
_RANGE_WL = 1.78897
_3DPLANE = 0
_V4_ADDITIONALDETECTOR = 0
_V4_D8_DIBNUM = 1
_V4_DETECTORNAME = "Detector 1"
_V4_TTLDETECTOR = None
_V4_DETECTORTYPE = 1
_V4_DETECTORFLAGS = 524545
_V4_DETECTORHV = 687
_V4_DETECTORGAIN = 80
_V4_DETECTORLLD1 = 0.69
_V4_DETECTORWW1 = 1.176
_V4_DETECTORLLD2 = 0
_V4_DETECTORWW2 = 0
_V4_DETECTORPS = 0
_V4_DETECTORDT = 0
_V4_DETECTORPILEUPTIME = 0
_V4_COUNTERS_MASK = 1
_V4_DRIVES_MASK = 0
_V4_ENCODERS_MASK = 0
_2THETACOUNTS = 1
; 2THETA  Cnt1_D1
  40.0000        195
  40.1000        179
  40.2000        188
  40.3000        178
  40.4000        163
  40.5000        189
  40.6000        186
  40.7000        166
  40.8000        185
  40.9000        174
  41.0000        173
  41.1000        200
  41.2000        183
  41.3000        206
  41.4000        174
  41.5000        169
  41.6000        174
  41.7000        183
  41.8000        180
  41.9000        173
  42.0000        158
  42.1000        167
  42.2000        192
  42.3000        192
  42.4000        186
  42.5000        216
  42.6000        206
  42.7000        223
  42.8000        270
  42.9000        259
  43.0000        253
  43.1000        248
  43.2000        249
  43.3000        266
  43.4000        232
  43.5000        247
  43.6000        258
  43.7000        223
  43.8000        234
  43.9000        220
  44.0000        212
  44.1000        218
  44.2000        194
  44.3000        201
  44.4000        195
  44.5000        197
  44.6000        189
  44.7000        182
  44.8000        167
  44.9000        178
  45.0000        172
  45.1000        202
  45.2000        176
  45.3000        182
  45.4000        182
  45.5000        186
  45.6000        208
  45.7000        198
  45.8000        211
  45.9000        181
  46.0000        209
  46.1000        196
  46.2000        180
  46.3000        178
  46.4000        176
  46.5000        184
  46.6000        169
  46.7000        196
  46.8000        195
  46.9000        196
  47.0000        224
  47.1000        184
  47.2000        184
  47.3000        168
  47.4000        176
  47.5000        184
  47.6000        213
  47.7000        187
  47.8000        176
  47.9000        195
  48.0000        209
  48.1000        166
  48.2000        173
  48.3000        210
  48.4000        204
  48.5000        191
  48.6000        213
  48.7000        181
  48.8000        215
  48.9000        190
  49.0000        200
  49.1000        203
  49.2000        181
  49.3000        199
  49.4000        190
  49.5000        187
  49.6000        197
  49.7000        242
  49.8000        239
  49.9000        239
  50.0000        227
  50.1000        207
  50.2000        237
  50.3000        246
  50.4000        260
  50.5000        276
  50.6000        257
  50.7000        249
  50.8000        269
  50.9000        302
  51.0000        294
  51.1000        277
  51.2000        304
  51.3000        318
  51.4000        372
  51.5000        439
  51.6000        523
  51.7000        619
  51.8000        670
  51.9000        763
  52.0000        831
  52.1000        904
  52.2000        957
  52.3000       1002
  52.4000       1002
  52.5000       1031
  52.6000        971
  52.7000        894
  52.8000        828
  52.9000        782
  53.0000        682
  53.1000        638
  53.2000        547
  53.3000        457
  53.4000        374
  53.5000        300
  53.6000        266
  53.7000        266
  53.8000        216
  53.9000        193
  54.0000        227
  54.1000        210
  54.2000        217
  54.3000        222
  54.4000        216
  54.5000        206
  54.6000        196
  54.7000        221
  54.8000        200
  54.9000        211
  55.0000        221
  55.1000        214
  55.2000        232
  55.3000        231
  55.4000        211
  55.5000        191
  55.6000        190
  55.7000        200
  55.8000        232
  55.9000        214
  56.0000        205
  56.1000        235
  56.2000        218
  56.3000        185
  56.4000        182
  56.5000        234
  56.6000        212
  56.7000        214
  56.8000        218
  56.9000        212
  57.0000        237
  57.1000        215
  57.2000        202
  57.3000        201
  57.4000        220
  57.5000        190
  57.6000        182
  57.7000        226
  57.8000        253
  57.9000        210
  58.0000        209
  58.1000        204
  58.2000        235
  58.3000        221
  58.4000        197
  58.5000        215
  58.6000        185
  58.7000        175
  58.8000        228
  58.9000        232
  59.0000        221
  59.1000        245
  59.2000        218
  59.3000        233
  59.4000        229
  59.5000        234
  59.6000        229
  59.7000        219
  59.8000        211
  59.9000        228
  60.0000        234
  60.1000        201
  60.2000        218
  60.3000        240
  60.4000        211
  60.5000        219
  60.6000        212
  60.7000        207
  60.8000        218
  60.9000        218
  61.0000        211
  61.1000        218
  61.2000        189
  61.3000        196
  61.4000        243
  61.5000        201
  61.6000        195
  61.7000        243
  61.8000        214
  61.9000        234
  62.0000        214
  62.1000        207
  62.2000        230
  62.3000        197
  62.4000        211
  62.5000        225
  62.6000        227
  62.7000        241
  62.8000        213
  62.9000        232
  63.0000        219
  63.1000        207
  63.2000        217
  63.3000        264
  63.4000        198
  63.5000        233
  63.6000        226
  63.7000        210
  63.8000        211
  63.9000        220
  64.0000        203
  64.1000        211
  64.2000        223
  64.3000        220
  64.4000        219
  64.5000        210
  64.6000        217
  64.7000        237
  64.8000        216
  64.9000        216
  65.0000        220
  65.1000        225
  65.2000        217
  65.3000        213
  65.4000        216
  65.5000        244
  65.6000        229
  65.7000        238
  65.8000        240
  65.9000        229
  66.0000        240
  66.1000        236
  66.2000        210
  66.3000        229
  66.4000        222
  66.5000        202
  66.6000        225
  66.7000        223
  66.8000        240
  66.9000        237
  67.0000        249
  67.1000        224
  67.2000        232
  67.3000        225
  67.4000        203
  67.5000        192
  67.6000        231
  67.7000        223
  67.8000        232
  67.9000        204
  68.0000        232
  68.1000        244
  68.2000        230
  68.3000        226
  68.4000        226
  68.5000        215
  68.6000        206
  68.7000        217
  68.8000        211
  68.9000        240
  69.0000        226
  69.1000        216
  69.2000        246
  69.3000        235
  69.4000        216
  69.5000        212
  69.6000        229
  69.7000        241
  69.8000        226
  69.9000        230
  70.0000        222
  70.1000        204
  70.2000        216
  70.3000        223
  70.4000        236
  70.5000        224
  70.6000        245
  70.7000        256
  70.8000        221
  70.9000        219
  71.0000        247
  71.1000        206
  71.2000        248
  71.3000        208
  71.4000        233
  71.5000        228
  71.6000        218
  71.7000        223
  71.8000        237
  71.9000        230
  72.0000        229
  72.1000        265
  72.2000        229
  72.3000        249
  72.4000        231
  72.5000        244
  72.6000        233
  72.7000        189
  72.8000        240
  72.9000        231
  73.0000        202
  73.1000        220
  73.2000        251
  73.3000        223
  73.4000        220
  73.5000        246
  73.6000        233
  73.7000        236
  73.8000        221
  73.9000        239
  74.0000        233
  74.1000        209
  74.2000        221
  74.3000        243
  74.4000        236
  74.5000        240
  74.6000        218
  74.7000        222
  74.8000        232
  74.9000        245
  75.0000        250
  75.1000        262
  75.2000        260
  75.3000        239
  75.4000        238
  75.5000        236
  75.6000        266
  75.7000        262
  75.8000        233
  75.9000        219
  76.0000        255
  76.1000        245
  76.2000        270
  76.3000        261
  76.4000        269
  76.5000        273
  76.6000        267
  76.7000        300
  76.8000        312
  76.9000        284
  77.0000        279
  77.1000        282
  77.2000        256
  77.3000        259
  77.4000        274
  77.5000        257
  77.6000        245
  77.7000        274
  77.8000        268
  77.9000        263
  78.0000        236
  78.1000        253
  78.2000        247
  78.3000        234
  78.4000        250
  78.5000        245
  78.6000        234
  78.7000        254
  78.8000        256
  78.9000        236
  79.0000        249
  79.1000        233
  79.2000        258
  79.3000        266
  79.4000        255
  79.5000        239
  79.6000        269
  79.7000        246
  79.8000        260
  79.9000        262
  80.0000        263
  80.1000        230
  80.2000        254
  80.3000        243
  80.4000        242
  80.5000        251
  80.6000        236
  80.7000        234
  80.8000        249
  80.9000        242
  81.0000        218
  81.1000        270
  81.2000        230
  81.3000        225
  81.4000        265
  81.5000        248
  81.6000        247
  81.7000        245
  81.8000        252
  81.9000        241
  82.0000        241
  82.1000        253
  82.2000        261
  82.3000        233
  82.4000        216
  82.5000        262
  82.6000        258
  82.7000        255
  82.8000        279
  82.9000        277
  83.0000        263
  83.1000        268
  83.2000        265
  83.3000        251
  83.4000        234
  83.5000        244
  83.6000        239
  83.7000        263
  83.8000        242
  83.9000        251
  84.0000        266
  84.1000        241
  84.2000        264
  84.3000        273
  84.4000        278
  84.5000        243
  84.6000        234
  84.7000        281
  84.8000        284
  84.9000        265
  85.0000        239
  85.1000        260
  85.2000        249
  85.3000        275
  85.4000        233
  85.5000        253
  85.6000        260
  85.7000        263
  85.8000        230
  85.9000        277
  86.0000        262
  86.1000        266
  86.2000        261
  86.3000        264
  86.4000        221
  86.5000        237
  86.6000        257
  86.7000        237
  86.8000        257
  86.9000        250
  87.0000        247
  87.1000        237
  87.2000        280
  87.3000        249
  87.4000        251
  87.5000        244
  87.6000        238
  87.7000        266
  87.8000        259
  87.9000        253
  88.0000        289
  88.1000        256
  88.2000        239
  88.3000        255
  88.4000        253
  88.5000        253
  88.6000        255
  88.7000        276
  88.8000        272
  88.9000        317
  89.0000        280
  89.1000        244
  89.2000        296
  89.3000        253
  89.4000        267
  89.5000        278
  89.6000        266
  89.7000        254
  89.8000        258
  89.9000        259
  90.0000        282
  90.1000        254
  90.2000        287
  90.3000        253
  90.4000        275
  90.5000        294
  90.6000        282
  90.7000        252
  90.8000        264
  90.9000        268
  91.0000        258
  91.1000        276
  91.2000        291
  91.3000        294
  91.4000        283
  91.5000        275
  91.6000        253
  91.7000        257
  91.8000        257
  91.9000        248
  92.0000        269
  92.1000        251
  92.2000        283
  92.3000        287
  92.4000        264
  92.5000        264
  92.6000        278
  92.7000        287
  92.8000        252
  92.9000        266
  93.0000        261
  93.1000        271
  93.2000        287
  93.3000        253
  93.4000        289
  93.5000        259
  93.6000        269
  93.7000        275
  93.8000        251
  93.9000        273
  94.0000        277
  94.1000        294
  94.2000        261
  94.3000        275
  94.4000        292
  94.5000        267
  94.6000        266
  94.7000        261
  94.8000        296
  94.9000        265
  95.0000        321
  95.1000        254
  95.2000        280
  95.3000        295
  95.4000        276
  95.5000        272
  95.6000        281
  95.7000        281
  95.8000        290
  95.9000        290
  96.0000        295
  96.1000        305
  96.2000        261
  96.3000        279
  96.4000        275
  96.5000        320
  96.6000        286
  96.7000        255
  96.8000        274
  96.9000        295
  97.0000        299
  97.1000        297
  97.2000        302
  97.3000        296
  97.4000        286
  97.5000        337
  97.6000        301
  97.7000        312
  97.8000        326
  97.9000        263
  98.0000        277
  98.1000        331
  98.2000        344
  98.3000        344
  98.4000        339
  98.5000        360
  98.6000        405
  98.7000        390
  98.8000        436
  98.9000        426
  99.0000        494
  99.1000        539
  99.2000        487
  99.3000        504
  99.4000        518
  99.5000        483
  99.6000        461
  99.7000        466
  99.8000        426
  99.9000        448
 100.0000        427
 100.1000        364
 100.2000        386
 100.3000        381
 100.4000        336
 100.5000        354
 100.6000        320
 100.7000        313
 100.8000        316
 100.9000        308
 101.0000        306
 101.1000        284
 101.2000        336
 101.3000        289
 101.4000        319
 101.5000        294
 101.6000        316
 101.7000        290
 101.8000        296
 101.9000        301
 102.0000        314
 102.1000        307
 102.2000        310
 102.3000        288
 102.4000        293
 102.5000        305
 102.6000        278
 102.7000        320
 102.8000        285
 102.9000        309
 103.0000        302
 103.1000        308
 103.2000        314
 103.3000        304
 103.4000        280
 103.5000        300
 103.6000        288
 103.7000        312
 103.8000        294
 103.9000        313
 104.0000        336
 104.1000        308
 104.2000        329
 104.3000        305
 104.4000        330
 104.5000        314
 104.6000        347
 104.7000        310
 104.8000        301
 104.9000        308
 105.0000        303
 105.1000        307
 105.2000        279
 105.3000        298
 105.4000        322
 105.5000        329
 105.6000        310
 105.7000        304
 105.8000        300
 105.9000        343
 106.0000        324
 106.1000        329
 106.2000        282
 106.3000        283
 106.4000        345
 106.5000        304
 106.6000        303
 106.7000        319
 106.8000        325
 106.9000        327
 107.0000        320
 107.1000        340
 107.2000        311
 107.3000        310
 107.4000        326
 107.5000        314
 107.6000        268
 107.7000        316
 107.8000        336
 107.9000        336
 108.0000        308
 108.1000        358
 108.2000        314
 108.3000        327
 108.4000        323
 108.5000        330
 108.6000        307
 108.7000        327
 108.8000        318
 108.9000        350
 109.0000        323
 109.1000        355
 109.2000        336
 109.3000        336
 109.4000        347
 109.5000        354
 109.6000        299
 109.7000        339
 109.8000        361
 109.9000        331
 110.0000        338
 110.1000        305
 110.2000        360
 110.3000        342
 110.4000        314
 110.5000        347
 110.6000        336
 110.7000        351
 110.8000        348
 110.9000        349
 111.0000        327
 111.1000        334
 111.2000        335
 111.3000        333
 111.4000        332
 111.5000        332
 111.6000        357
 111.7000        342
 111.8000        307
 111.9000        326
 112.0000        327
 112.1000        347
 112.2000        328
 112.3000        338
 112.4000        329
 112.5000        339
 112.6000        333
 112.7000        346
 112.8000        356
 112.9000        353
 113.0000        347
 113.1000        322
 113.2000        282
 113.3000        364
 113.4000        358
 113.5000        352
 113.6000        332
 113.7000        307
 113.8000        357
 113.9000        317
 114.0000        321
 114.1000        375
 114.2000        348
 114.3000        341
 114.4000        380
 114.5000        348
 114.6000        363
 114.7000        347
 114.8000        330
 114.9000        331
 115.0000        330
 115.1000        365
 115.2000        353
 115.3000        319
 115.4000        332
 115.5000        326
 115.6000        372
 115.7000        341
 115.8000        357
 115.9000        345
 116.0000        298
 116.1000        324
 116.2000        364
 116.3000        340
 116.4000        345
 116.5000        364
 116.6000        352
 116.7000        378
 116.8000        341
 116.9000        351
 117.0000        348
 117.1000        359
 117.2000        380
 117.3000        347
 117.4000        348
 117.5000        337
 117.6000        378
 117.7000        361
 117.8000        375
 117.9000        365
 118.0000        332
 118.1000        378
 118.2000        370
 118.3000        393
 118.4000        368
 118.5000        348
 118.6000        371
 118.7000        389
 118.8000        350
 118.9000        390
 119.0000        376
 119.1000        341
 119.2000        361
 119.3000        379
 119.4000        359
 119.5000        368
 119.6000        360
 119.7000        351
 119.8000        356
 119.9000        351
 120.0000        370
 120.1000        366
 120.2000        360
 120.3000        351
 120.4000        384
 120.5000        373
 120.6000        329
 120.7000        353
 120.8000        346
 120.9000        345
 121.0000        334
 121.1000        392
 121.2000        384
 121.3000        363
 121.4000        399
 121.5000        400
 121.6000        366
 121.7000        378
 121.8000        419
 121.9000        379
 122.0000        399
 122.1000        408
 122.2000        406
 122.3000        442
 122.4000        433
 122.5000        444
 122.6000        446
 122.7000        452
 122.8000        464
 122.9000        463
 123.0000        487
 123.1000        497
 123.2000        515
 123.3000        472
 123.4000        490
 123.5000        539
 123.6000        472
 123.7000        472
 123.8000        497
 123.9000        498
 124.0000        458
 124.1000        437
 124.2000        423
 124.3000        424
 124.4000        399
 124.5000        412
 124.6000        371
 124.7000        385
 124.8000        394
 124.9000        384
 125.0000        363
 125.1000        370
 125.2000        403
 125.3000        390
 125.4000        348
 125.5000        426
 125.6000        396
 125.7000        359
 125.8000        396
 125.9000        367
 126.0000        419
 126.1000        404
 126.2000        342
 126.3000        387
 126.4000        355
 126.5000        406
 126.6000        366
 126.7000        382
 126.8000        338
 126.9000        378
 127.0000        388
 127.1000        361
 127.2000        356
 127.3000        372
 127.4000        379
 127.5000        386
 127.6000        377
 127.7000        366
 127.8000        341
 127.9000        399
 128.0000        378
 128.1000        370
 128.2000        345
 128.3000        341
 128.4000        378
 128.5000        367
 128.6000        344
 128.7000        356
 128.8000        357
 128.9000        389
 129.0000        374
 129.1000        380
 129.2000        363
 129.3000        390
 129.4000        418
 129.5000        372
 129.6000        373
 129.7000        375
 129.8000        394
 129.9000        377
 130.0000        363