File: exp_dat/old/exp_2013_11_11/17pct_00G.uxd
; (content of file C:\DIFFDAT1\GIFT\MDL\Seawoong Lee\20131104_MV8\equal_area_maxkhi080_n8_2th40_130_x25y-25_0g.raw)
_FILEVERSION = 3
_SAMPLE =
_+SAMPLE =
_SITE = Korea
_USER = Admin
_GONIOMETER_CODE = 20
; Goniometer : D8 theta/2theta, stage : Unknown
_SAMPLE_CHANGER_CODE = 0
_ATTACHMENTS_CODE = 0
_GONIOMETER_RADIUS = 300
_FIXED_DIVSLIT = 1
_FIXED_SAMPLESLIT = 0
_SOLLER_SLITS = 2
_FIXED_DETSLIT = 0.1
_MONOCHROMATOR = 0
; Incident beam monochromator : None
_SOLLER_SLITS_2 = 2
_THIN_FILM = N
_BETA_FILTER = Y
_FIXED_ANTISLIT = 0.6
_ANALYZER_CODE = 0
; Received beam analyzer : None
_DATEMEASURED = "08-Nov-2013 12:53:55"
_WL_UNIT = A
_WL1 = 1.78897
_WL2 = 1.79285
_WL3 = 1.62079
_WLRATIO = 0.5
_ANODE = Co
_V4_INF_CREATOR = XRDWizard
_V4_INF_CREATOR_VERSION = V2.9.0.22
_V4_INF_WIZARD_VERSION = V2.9.0.22
_V4_INF_WIZARD_ADDINS = V2.9.0.22
_V4_INF_WIZARD_DOCTYPE = XRD
_V4_INF_OSUSER = Postech
_V4_INF_USER = Admin
_V4_INF_SITE = Korea

; Data for range 1
_DRIVE = COUPLED
_STEPTIME = 0.2
_STEPSIZE = 0.1
_STEPMODE = C
_START = 40
_THETA = 20
_2THETA = 40
_KHI = 0
_PHI = 0
_X = 25
_Y = -25
_Z = 0
_DETECTOR = 1
; Detector type : Scintillation counter
_HV = 687
_GAIN = 80
_LLD = 0.69
_ULD = 1.866
_DETECTORSLIT = unkn
_AUX1 = 0
_AUX2 = 0
_AUX3 = 0
_TIMESTARTED = 13
_TEMP_RATE = -1
_TEMP_DELAY = -1
_KV = 35
_MA = 40
_RANGE_WL = 1.78897
_3DPLANE = 0
_V4_ADDITIONALDETECTOR = 0
_V4_D8_DIBNUM = 1
_V4_DETECTORNAME = "Detector 1"
_V4_TTLDETECTOR = None
_V4_DETECTORTYPE = 1
_V4_DETECTORFLAGS = 524545
_V4_DETECTORHV = 687
_V4_DETECTORGAIN = 80
_V4_DETECTORLLD1 = 0.69
_V4_DETECTORWW1 = 1.176
_V4_DETECTORLLD2 = 0
_V4_DETECTORWW2 = 0
_V4_DETECTORPS = 0
_V4_DETECTORDT = 0
_V4_DETECTORPILEUPTIME = 0
_V4_COUNTERS_MASK = 1
_V4_DRIVES_MASK = 0
_V4_ENCODERS_MASK = 0
_2THETACOUNTS = 1
; 2THETA  Cnt1_D1
  40.0000        500
  40.1000        528
  40.2000        517
  40.3000        513
  40.4000        494
  40.5000        505
  40.6000        516
  40.7000        493
  40.8000        521
  40.9000        512
  41.0000        527
  41.1000        525
  41.2000        515
  41.3000        497
  41.4000        541
  41.5000        483
  41.6000        500
  41.7000        500
  41.8000        538
  41.9000        524
  42.0000        509
  42.1000        527
  42.2000        542
  42.3000        570
  42.4000        503
  42.5000        511
  42.6000        557
  42.7000        503
  42.8000        533
  42.9000        521
  43.0000        494
  43.1000        516
  43.2000        493
  43.3000        518
  43.4000        528
  43.5000        519
  43.6000        517
  43.7000        593
  43.8000        533
  43.9000        514
  44.0000        543
  44.1000        485
  44.2000        537
  44.3000        543
  44.4000        496
  44.5000        546
  44.6000        498
  44.7000        466
  44.8000        510
  44.9000        536
  45.0000        550
  45.1000        471
  45.2000        471
  45.3000        543
  45.4000        531
  45.5000        480
  45.6000        540
  45.7000        522
  45.8000        491
  45.9000        530
  46.0000        484
  46.1000        532
  46.2000        545
  46.3000        496
  46.4000        551
  46.5000        512
  46.6000        513
  46.7000        537
  46.8000        504
  46.9000        517
  47.0000        538
  47.1000        491
  47.2000        513
  47.3000        491
  47.4000        513
  47.5000        513
  47.6000        475
  47.7000        506
  47.8000        517
  47.9000        509
  48.0000        522
  48.1000        520
  48.2000        504
  48.3000        536
  48.4000        553
  48.5000        508
  48.6000        534
  48.7000        524
  48.8000        494
  48.9000        477
  49.0000        525
  49.1000        531
  49.2000        536
  49.3000        491
  49.4000        552
  49.5000        510
  49.6000        558
  49.7000        510
  49.8000        564
  49.9000        520
  50.0000        489
  50.1000        509
  50.2000        503
  50.3000        472
  50.4000        512
  50.5000        495
  50.6000        528
  50.7000        491
  50.8000        534
  50.9000        541
  51.0000        508
  51.1000        541
  51.2000        545
  51.3000        562
  51.4000        611
  51.5000        653
  51.6000        739
  51.7000        910
  51.8000       1026
  51.9000       1140
  52.0000       1158
  52.1000       1228
  52.2000       1242
  52.3000       1235
  52.4000       1128
  52.5000        985
  52.6000        807
  52.7000        707
  52.8000        629
  52.9000        589
  53.0000        558
  53.1000        550
  53.2000        577
  53.3000        548
  53.4000        542
  53.5000        502
  53.6000        490
  53.7000        485
  53.8000        520
  53.9000        508
  54.0000        531
  54.1000        530
  54.2000        523
  54.3000        558
  54.4000        537
  54.5000        545
  54.6000        531
  54.7000        510
  54.8000        523
  54.9000        487
  55.0000        533
  55.1000        557
  55.2000        494
  55.3000        548
  55.4000        484
  55.5000        491
  55.6000        522
  55.7000        523
  55.8000        516
  55.9000        499
  56.0000        548
  56.1000        467
  56.2000        548
  56.3000        515
  56.4000        473
  56.5000        476
  56.6000        527
  56.7000        527
  56.8000        514
  56.9000        529
  57.0000        506
  57.1000        505
  57.2000        521
  57.3000        498
  57.4000        522
  57.5000        499
  57.6000        494
  57.7000        496
  57.8000        507
  57.9000        498
  58.0000        485
  58.1000        471
  58.2000        501
  58.3000        535
  58.4000        485
  58.5000        501
  58.6000        484
  58.7000        516
  58.8000        513
  58.9000        531
  59.0000        483
  59.1000        494
  59.2000        483
  59.3000        512
  59.4000        528
  59.5000        523
  59.6000        530
  59.7000        512
  59.8000        531
  59.9000        491
  60.0000        537
  60.1000        522
  60.2000        520
  60.3000        530
  60.4000        541
  60.5000        493
  60.6000        514
  60.7000        522
  60.8000        492
  60.9000        547
  61.0000        475
  61.1000        530
  61.2000        483
  61.3000        511
  61.4000        499
  61.5000        528
  61.6000        517
  61.7000        527
  61.8000        512
  61.9000        503
  62.0000        516
  62.1000        509
  62.2000        509
  62.3000        502
  62.4000        505
  62.5000        498
  62.6000        535
  62.7000        501
  62.8000        509
  62.9000        491
  63.0000        471
  63.1000        499
  63.2000        513
  63.3000        538
  63.4000        488
  63.5000        519
  63.6000        514
  63.7000        506
  63.8000        495
  63.9000        495
  64.0000        478
  64.1000        511
  64.2000        539
  64.3000        478
  64.4000        534
  64.5000        510
  64.6000        480
  64.7000        504
  64.8000        455
  64.9000        526
  65.0000        539
  65.1000        499
  65.2000        489
  65.3000        520
  65.4000        494
  65.5000        480
  65.6000        489
  65.7000        525
  65.8000        536
  65.9000        517
  66.0000        500
  66.1000        481
  66.2000        509
  66.3000        470
  66.4000        545
  66.5000        533
  66.6000        512
  66.7000        516
  66.8000        477
  66.9000        493
  67.0000        517
  67.1000        504
  67.2000        501
  67.3000        540
  67.4000        483
  67.5000        555
  67.6000        494
  67.7000        481
  67.8000        556
  67.9000        491
  68.0000        505
  68.1000        517
  68.2000        523
  68.3000        480
  68.4000        513
  68.5000        513
  68.6000        547
  68.7000        499
  68.8000        516
  68.9000        479
  69.0000        517
  69.1000        519
  69.2000        487
  69.3000        506
  69.4000        502
  69.5000        478
  69.6000        518
  69.7000        546
  69.8000        518
  69.9000        501
  70.0000        561
  70.1000        546
  70.2000        533
  70.3000        501
  70.4000        528
  70.5000        515
  70.6000        481
  70.7000        509
  70.8000        528
  70.9000        468
  71.0000        517
  71.1000        517
  71.2000        450
  71.3000        496
  71.4000        530
  71.5000        504
  71.6000        535
  71.7000        520
  71.8000        490
  71.9000        529
  72.0000        516
  72.1000        462
  72.2000        497
  72.3000        541
  72.4000        508
  72.5000        463
  72.6000        510
  72.7000        495
  72.8000        466
  72.9000        498
  73.0000        498
  73.1000        537
  73.2000        463
  73.3000        512
  73.4000        519
  73.5000        475
  73.6000        490
  73.7000        526
  73.8000        492
  73.9000        471
  74.0000        517
  74.1000        535
  74.2000        503
  74.3000        522
  74.4000        536
  74.5000        504
  74.6000        512
  74.7000        522
  74.8000        516
  74.9000        566
  75.0000        517
  75.1000        541
  75.2000        518
  75.3000        517
  75.4000        544
  75.5000        515
  75.6000        510
  75.7000        549
  75.8000        619
  75.9000        635
  76.0000        676
  76.1000        739
  76.2000        871
  76.3000        983
  76.4000       1020
  76.5000       1210
  76.6000       1249
  76.7000       1365
  76.8000       1340
  76.9000       1260
  77.0000       1234
  77.1000       1154
  77.2000        964
  77.3000        848
  77.4000        744
  77.5000        731
  77.6000        651
  77.7000        568
  77.8000        601
  77.9000        572
  78.0000        542
  78.1000        514
  78.2000        529
  78.3000        514
  78.4000        522
  78.5000        563
  78.6000        514
  78.7000        552
  78.8000        498
  78.9000        536
  79.0000        526
  79.1000        511
  79.2000        562
  79.3000        546
  79.4000        541
  79.5000        534
  79.6000        507
  79.7000        542
  79.8000        528
  79.9000        544
  80.0000        507
  80.1000        476
  80.2000        499
  80.3000        520
  80.4000        485
  80.5000        495
  80.6000        516
  80.7000        494
  80.8000        477
  80.9000        530
  81.0000        489
  81.1000        467
  81.2000        496
  81.3000        510
  81.4000        532
  81.5000        540
  81.6000        487
  81.7000        561
  81.8000        484
  81.9000        491
  82.0000        534
  82.1000        486
  82.2000        507
  82.3000        479
  82.4000        525
  82.5000        505
  82.6000        443
  82.7000        508
  82.8000        560
  82.9000        485
  83.0000        487
  83.1000        542
  83.2000        522
  83.3000        509
  83.4000        484
  83.5000        476
  83.6000        478
  83.7000        506
  83.8000        500
  83.9000        524
  84.0000        514
  84.1000        548
  84.2000        550
  84.3000        497
  84.4000        490
  84.5000        526
  84.6000        523
  84.7000        525
  84.8000        536
  84.9000        522
  85.0000        546
  85.1000        508
  85.2000        494
  85.3000        486
  85.4000        533
  85.5000        500
  85.6000        524
  85.7000        510
  85.8000        510
  85.9000        506
  86.0000        562
  86.1000        515
  86.2000        457
  86.3000        489
  86.4000        480
  86.5000        539
  86.6000        510
  86.7000        541
  86.8000        496
  86.9000        485
  87.0000        515
  87.1000        525
  87.2000        502
  87.3000        511
  87.4000        539
  87.5000        512
  87.6000        518
  87.7000        577
  87.8000        508
  87.9000        494
  88.0000        503
  88.1000        539
  88.2000        529
  88.3000        512
  88.4000        476
  88.5000        561
  88.6000        533
  88.7000        466
  88.8000        493
  88.9000        503
  89.0000        492
  89.1000        498
  89.2000        514
  89.3000        495
  89.4000        478
  89.5000        492
  89.6000        487
  89.7000        527
  89.8000        520
  89.9000        504
  90.0000        520
  90.1000        542
  90.2000        508
  90.3000        527
  90.4000        512
  90.5000        547
  90.6000        521
  90.7000        496
  90.8000        526
  90.9000        531
  91.0000        514
  91.1000        511
  91.2000        516
  91.3000        504
  91.4000        484
  91.5000        523
  91.6000        481
  91.7000        540
  91.8000        545
  91.9000        512
  92.0000        525
  92.1000        507
  92.2000        528
  92.3000        557
  92.4000        512
  92.5000        535
  92.6000        524
  92.7000        480
  92.8000        557
  92.9000        492
  93.0000        484
  93.1000        518
  93.2000        511
  93.3000        509
  93.4000        498
  93.5000        461
  93.6000        539
  93.7000        508
  93.8000        500
  93.9000        498
  94.0000        503
  94.1000        493
  94.2000        530
  94.3000        488
  94.4000        459
  94.5000        538
  94.6000        526
  94.7000        523
  94.8000        493
  94.9000        521
  95.0000        481
  95.1000        505
  95.2000        566
  95.3000        520
  95.4000        519
  95.5000        530
  95.6000        520
  95.7000        511
  95.8000        495
  95.9000        524
  96.0000        508
  96.1000        551
  96.2000        516
  96.3000        516
  96.4000        516
  96.5000        489
  96.6000        514
  96.7000        514
  96.8000        494
  96.9000        506
  97.0000        542
  97.1000        509
  97.2000        494
  97.3000        539
  97.4000        528
  97.5000        508
  97.6000        559
  97.7000        526
  97.8000        559
  97.9000        541
  98.0000        557
  98.1000        620
  98.2000        572
  98.3000        644
  98.4000        725
  98.5000        794
  98.6000        897
  98.7000       1093
  98.8000       1297
  98.9000       1346
  99.0000       1525
  99.1000       1588
  99.2000       1649
  99.3000       1628
  99.4000       1562
  99.5000       1507
  99.6000       1307
  99.7000       1153
  99.8000        995
  99.9000        829
 100.0000        750
 100.1000        722
 100.2000        673
 100.3000        584
 100.4000        624
 100.5000        617
 100.6000        568
 100.7000        541
 100.8000        557
 100.9000        522
 101.0000        485
 101.1000        566
 101.2000        504
 101.3000        544
 101.4000        532
 101.5000        525
 101.6000        554
 101.7000        542
 101.8000        533
 101.9000        511
 102.0000        518
 102.1000        503
 102.2000        544
 102.3000        488
 102.4000        505
 102.5000        511
 102.6000        564
 102.7000        542
 102.8000        519
 102.9000        519
 103.0000        560
 103.1000        466
 103.2000        564
 103.3000        576
 103.4000        538
 103.5000        509
 103.6000        507
 103.7000        557
 103.8000        519
 103.9000        497
 104.0000        529
 104.1000        532
 104.2000        507
 104.3000        502
 104.4000        521
 104.5000        534
 104.6000        483
 104.7000        525
 104.8000        523
 104.9000        489
 105.0000        530
 105.1000        490
 105.2000        489
 105.3000        506
 105.4000        535
 105.5000        488
 105.6000        545
 105.7000        519
 105.8000        488
 105.9000        502
 106.0000        495
 106.1000        527
 106.2000        486
 106.3000        548
 106.4000        506
 106.5000        514
 106.6000        546
 106.7000        514
 106.8000        494
 106.9000        477
 107.0000        481
 107.1000        541
 107.2000        495
 107.3000        520
 107.4000        515
 107.5000        511
 107.6000        537
 107.7000        481
 107.8000        515
 107.9000        505
 108.0000        529
 108.1000        530
 108.2000        527
 108.3000        522
 108.4000        488
 108.5000        515
 108.6000        457
 108.7000        502
 108.8000        544
 108.9000        514
 109.0000        483
 109.1000        534
 109.2000        503
 109.3000        540
 109.4000        521
 109.5000        524
 109.6000        524
 109.7000        507
 109.8000        519
 109.9000        482
 110.0000        528
 110.1000        465
 110.2000        444
 110.3000        533
 110.4000        531
 110.5000        541
 110.6000        521
 110.7000        509
 110.8000        473
 110.9000        545
 111.0000        483
 111.1000        522
 111.2000        545
 111.3000        514
 111.4000        504
 111.5000        494
 111.6000        552
 111.7000        500
 111.8000        493
 111.9000        514
 112.0000        509
 112.1000        499
 112.2000        537
 112.3000        484
 112.4000        479
 112.5000        515
 112.6000        510
 112.7000        498
 112.8000        556
 112.9000        531
 113.0000        526
 113.1000        494
 113.2000        483
 113.3000        516
 113.4000        479
 113.5000        505
 113.6000        518
 113.7000        500
 113.8000        515
 113.9000        514
 114.0000        516
 114.1000        485
 114.2000        508
 114.3000        519
 114.4000        486
 114.5000        476
 114.6000        486
 114.7000        489
 114.8000        515
 114.9000        533
 115.0000        492
 115.1000        497
 115.2000        504
 115.3000        525
 115.4000        479
 115.5000        514
 115.6000        483
 115.7000        517
 115.8000        523
 115.9000        527
 116.0000        480
 116.1000        535
 116.2000        488
 116.3000        539
 116.4000        463
 116.5000        503
 116.6000        489
 116.7000        509
 116.8000        557
 116.9000        515
 117.0000        490
 117.1000        511
 117.2000        526
 117.3000        516
 117.4000        525
 117.5000        544
 117.6000        501
 117.7000        523
 117.8000        516
 117.9000        526
 118.0000        516
 118.1000        507
 118.2000        496
 118.3000        548
 118.4000        520
 118.5000        514
 118.6000        550
 118.7000        510
 118.8000        518
 118.9000        521
 119.0000        520
 119.1000        504
 119.2000        487
 119.3000        551
 119.4000        512
 119.5000        527
 119.6000        559
 119.7000        517
 119.8000        491
 119.9000        506
 120.0000        520
 120.1000        523
 120.2000        536
 120.3000        508
 120.4000        524
 120.5000        543
 120.6000        495
 120.7000        507
 120.8000        517
 120.9000        517
 121.0000        490
 121.1000        503
 121.2000        504
 121.3000        492
 121.4000        519
 121.5000        489
 121.6000        472
 121.7000        563
 121.8000        513
 121.9000        498
 122.0000        486
 122.1000        488
 122.2000        554
 122.3000        521
 122.4000        512
 122.5000        546
 122.6000        531
 122.7000        527
 122.8000        568
 122.9000        548
 123.0000        516
 123.1000        525
 123.2000        554
 123.3000        554
 123.4000        550
 123.5000        580
 123.6000        574
 123.7000        563
 123.8000        531
 123.9000        564
 124.0000        529
 124.1000        518
 124.2000        579
 124.3000        541
 124.4000        530
 124.5000        542
 124.6000        498
 124.7000        489
 124.8000        466
 124.9000        515
 125.0000        492
 125.1000        504
 125.2000        496
 125.3000        501
 125.4000        504
 125.5000        520
 125.6000        526
 125.7000        520
 125.8000        500
 125.9000        519
 126.0000        478
 126.1000        527
 126.2000        517
 126.3000        517
 126.4000        517
 126.5000        515
 126.6000        494
 126.7000        527
 126.8000        524
 126.9000        464
 127.0000        528
 127.1000        492
 127.2000        475
 127.3000        527
 127.4000        532
 127.5000        560
 127.6000        550
 127.7000        502
 127.8000        513
 127.9000        475
 128.0000        552
 128.1000        468
 128.2000        496
 128.3000        535
 128.4000        522
 128.5000        492
 128.6000        522
 128.7000        503
 128.8000        503
 128.9000        469
 129.0000        518
 129.1000        513
 129.2000        504
 129.3000        475
 129.4000        486
 129.5000        479
 129.6000        538
 129.7000        497
 129.8000        500
 129.9000        495
 130.0000        520

; Data for range 2
_DRIVE = COUPLED
_STEPTIME = 0.2
_STEPSIZE = 0.1
_STEPMODE = C
_START = 40
_THETA = 20
_2THETA = 40
_KHI = 10.5
_PHI = 60
_X = 25
_Y = -25
_Z = 0
_DETECTOR = 1
; Detector type : Scintillation counter
_HV = 687
_GAIN = 80
_LLD = 0.69
_ULD = 1.866
_DETECTORSLIT = unkn
_AUX1 = 0
_AUX2 = 0
_AUX3 = 0
_TIMESTARTED = 210
_TEMP_RATE = -1
_TEMP_DELAY = -1
_KV = 35
_MA = 40
_RANGE_WL = 1.78897
_3DPLANE = 0
_V4_ADDITIONALDETECTOR = 0
_V4_D8_DIBNUM = 1
_V4_DETECTORNAME = "Detector 1"
_V4_TTLDETECTOR = None
_V4_DETECTORTYPE = 1
_V4_DETECTORFLAGS = 524545
_V4_DETECTORHV = 687
_V4_DETECTORGAIN = 80
_V4_DETECTORLLD1 = 0.69
_V4_DETECTORWW1 = 1.176
_V4_DETECTORLLD2 = 0
_V4_DETECTORWW2 = 0
_V4_DETECTORPS = 0
_V4_DETECTORDT = 0
_V4_DETECTORPILEUPTIME = 0
_V4_COUNTERS_MASK = 1
_V4_DRIVES_MASK = 0
_V4_ENCODERS_MASK = 0
_2THETACOUNTS = 1
; 2THETA  Cnt1_D1
  40.0000        497
  40.1000        512
  40.2000        486
  40.3000        495
  40.4000        555
  40.5000        470
  40.6000        541
  40.7000        533
  40.8000        488
  40.9000        527
  41.0000        516
  41.1000        515
  41.2000        548
  41.3000        530
  41.4000        492
  41.5000        508
  41.6000        529
  41.7000        473
  41.8000        525
  41.9000        522
  42.0000        479
  42.1000        537
  42.2000        528
  42.3000        502
  42.4000        516
  42.5000        481
  42.6000        499
  42.7000        577
  42.8000        526
  42.9000        497
  43.0000        488
  43.1000        519
  43.2000        510
  43.3000        481
  43.4000        561
  43.5000        516
  43.6000        520
  43.7000        574
  43.8000        524
  43.9000        491
  44.0000        495
  44.1000        501
  44.2000        533
  44.3000        524
  44.4000        502
  44.5000        545
  44.6000        511
  44.7000        528
  44.8000        517
  44.9000        528
  45.0000        485
  45.1000        537
  45.2000        513
  45.3000        516
  45.4000        492
  45.5000        518
  45.6000        487
  45.7000        513
  45.8000        514
  45.9000        504
  46.0000        492
  46.1000        496
  46.2000        516
  46.3000        530
  46.4000        526
  46.5000        504
  46.6000        517
  46.7000        522
  46.8000        510
  46.9000        502
  47.0000        536
  47.1000        537
  47.2000        489
  47.3000        512
  47.4000        487
  47.5000        476
  47.6000        506
  47.7000        478
  47.8000        513
  47.9000        497
  48.0000        496
  48.1000        509
  48.2000        509
  48.3000        568
  48.4000        521
  48.5000        501
  48.6000        536
  48.7000        506
  48.8000        527
  48.9000        490
  49.0000        563
  49.1000        557
  49.2000        490
  49.3000        464
  49.4000        522
  49.5000        482
  49.6000        486
  49.7000        519
  49.8000        481
  49.9000        551
  50.0000        489
  50.1000        500
  50.2000        502
  50.3000        498
  50.4000        483
  50.5000        522
  50.6000        512
  50.7000        513
  50.8000        497
  50.9000        525
  51.0000        520
  51.1000        543
  51.2000        554
  51.3000        594
  51.4000        635
  51.5000        731
  51.6000        900
  51.7000       1105
  51.8000       1302
  51.9000       1421
  52.0000       1458
  52.1000       1467
  52.2000       1414
  52.3000       1493
  52.4000       1370
  52.5000       1094
  52.6000        932
  52.7000        723
  52.8000        644
  52.9000        531
  53.0000        588
  53.1000        541
  53.2000        539
  53.3000        554
  53.4000        513
  53.5000        493
  53.6000        509
  53.7000        513
  53.8000        528
  53.9000        527
  54.0000        532
  54.1000        487
  54.2000        508
  54.3000        504
  54.4000        536
  54.5000        516
  54.6000        501
  54.7000        503
  54.8000        538
  54.9000        501
  55.0000        514
  55.1000        530
  55.2000        491
  55.3000        479
  55.4000        456
  55.5000        500
  55.6000        476
  55.7000        508
  55.8000        535
  55.9000        520
  56.0000        509
  56.1000        454
  56.2000        524
  56.3000        487
  56.4000        478
  56.5000        528
  56.6000        505
  56.7000        525
  56.8000        503
  56.9000        513
  57.0000        509
  57.1000        493
  57.2000        476
  57.3000        483
  57.4000        492
  57.5000        497
  57.6000        509
  57.7000        491
  57.8000        490
  57.9000        497
  58.0000        496
  58.1000        491
  58.2000        540
  58.3000        536
  58.4000        507
  58.5000        511
  58.6000        520
  58.7000        510
  58.8000        470
  58.9000        478
  59.0000        514
  59.1000        527
  59.2000        486
  59.3000        518
  59.4000        494
  59.5000        509
  59.6000        492
  59.7000        487
  59.8000        479
  59.9000        542
  60.0000        500
  60.1000        496
  60.2000        478
  60.3000        491
  60.4000        502
  60.5000        546
  60.6000        439
  60.7000        500
  60.8000        480
  60.9000        529
  61.0000        474
  61.1000        502
  61.2000        485
  61.3000        500
  61.4000        509
  61.5000        520
  61.6000        566
  61.7000        488
  61.8000        512
  61.9000        465
  62.0000        477
  62.1000        540
  62.2000        509
  62.3000        484
  62.4000        549
  62.5000        470
  62.6000        503
  62.7000        460
  62.8000        520
  62.9000        501
  63.0000        480
  63.1000        524
  63.2000        506
  63.3000        527
  63.4000        471
  63.5000        458
  63.6000        487
  63.7000        484
  63.8000        521
  63.9000        490
  64.0000        515
  64.1000        534
  64.2000        479
  64.3000        491
  64.4000        517
  64.5000        493
  64.6000        519
  64.7000        497
  64.8000        489
  64.9000        496
  65.0000        493
  65.1000        492
  65.2000        468
  65.3000        474
  65.4000        506
  65.5000        498
  65.6000        470
  65.7000        549
  65.8000        543
  65.9000        513
  66.0000        511
  66.1000        513
  66.2000        487
  66.3000        481
  66.4000        468
  66.5000        499
  66.6000        469
  66.7000        564
  66.8000        500
  66.9000        530
  67.0000        538
  67.1000        507
  67.2000        487
  67.3000        499
  67.4000        521
  67.5000        486
  67.6000        569
  67.7000        500
  67.8000        480
  67.9000        482
  68.0000        524
  68.1000        512
  68.2000        480
  68.3000        528
  68.4000        499
  68.5000        528
  68.6000        507
  68.7000        513
  68.8000        499
  68.9000        490
  69.0000        506
  69.1000        477
  69.2000        455
  69.3000        495
  69.4000        475
  69.5000        498
  69.6000        497
  69.7000        497
  69.8000        482
  69.9000        522
  70.0000        520
  70.1000        504
  70.2000        521
  70.3000        465
  70.4000        468
  70.5000        478
  70.6000        478
  70.7000        454
  70.8000        478
  70.9000        502
  71.0000        476
  71.1000        509
  71.2000        522
  71.3000        518
  71.4000        504
  71.5000        520
  71.6000        525
  71.7000        493
  71.8000        521
  71.9000        543
  72.0000        440
  72.1000        474
  72.2000        505
  72.3000        483
  72.4000        511
  72.5000        499
  72.6000        502
  72.7000        521
  72.8000        533
  72.9000        491
  73.0000        479
  73.1000        518
  73.2000        475
  73.3000        467
  73.4000        470
  73.5000        555
  73.6000        491
  73.7000        490
  73.8000        522
  73.9000        527
  74.0000        497
  74.1000        513
  74.2000        497
  74.3000        519
  74.4000        547
  74.5000        483
  74.6000        520
  74.7000        470
  74.8000        542
  74.9000        496
  75.0000        513
  75.1000        506
  75.2000        534
  75.3000        508
  75.4000        489
  75.5000        533
  75.6000        468
  75.7000        504
  75.8000        529
  75.9000        512
  76.0000        536
  76.1000        572
  76.2000        580
  76.3000        628
  76.4000        708
  76.5000        731
  76.6000        753
  76.7000        697
  76.8000        750
  76.9000        725
  77.0000        710
  77.1000        701
  77.2000        691
  77.3000        597
  77.4000        563
  77.5000        620
  77.6000        544
  77.7000        504
  77.8000        515
  77.9000        524
  78.0000        537
  78.1000        490
  78.2000        507
  78.3000        519
  78.4000        509
  78.5000        503
  78.6000        527
  78.7000        478
  78.8000        533
  78.9000        456
  79.0000        529
  79.1000        513
  79.2000        503
  79.3000        494
  79.4000        503
  79.5000        500
  79.6000        468
  79.7000        504
  79.8000        528
  79.9000        509
  80.0000        515
  80.1000        493
  80.2000        525
  80.3000        505
  80.4000        510
  80.5000        508
  80.6000        509
  80.7000        491
  80.8000        465
  80.9000        495
  81.0000        457
  81.1000        507
  81.2000        490
  81.3000        529
  81.4000        477
  81.5000        494
  81.6000        523
  81.7000        540
  81.8000        544
  81.9000        487
  82.0000        513
  82.1000        491
  82.2000        503
  82.3000        505
  82.4000        511
  82.5000        539
  82.6000        467
  82.7000        513
  82.8000        574
  82.9000        505
  83.0000        498
  83.1000        542
  83.2000        493
  83.3000        545
  83.4000        488
  83.5000        450
  83.6000        516
  83.7000        524
  83.8000        489
  83.9000        497
  84.0000        497
  84.1000        536
  84.2000        524
  84.3000        494
  84.4000        509
  84.5000        522
  84.6000        430
  84.7000        521
  84.8000        491
  84.9000        490
  85.0000        494
  85.1000        523
  85.2000        465
  85.3000        493
  85.4000        534
  85.5000        487
  85.6000        493
  85.7000        517
  85.8000        511
  85.9000        507
  86.0000        528
  86.1000        529
  86.2000        475
  86.3000        472
  86.4000        492
  86.5000        481
  86.6000        483
  86.7000        498
  86.8000        492
  86.9000        449
  87.0000        521
  87.1000        507
  87.2000        513
  87.3000        499
  87.4000        479
  87.5000        540
  87.6000        523
  87.7000        489
  87.8000        503
  87.9000        504
  88.0000        507
  88.1000        455
  88.2000        516
  88.3000        522
  88.4000        469
  88.5000        475
  88.6000        509
  88.7000        477
  88.8000        504
  88.9000        527
  89.0000        478
  89.1000        537
  89.2000        526
  89.3000        540
  89.4000        460
  89.5000        502
  89.6000        479
  89.7000        474
  89.8000        498
  89.9000        442
  90.0000        481
  90.1000        477
  90.2000        509
  90.3000        527
  90.4000        523
  90.5000        540
  90.6000        492
  90.7000        490
  90.8000        520
  90.9000        527
  91.0000        550
  91.1000        492
  91.2000        488
  91.3000        491
  91.4000        507
  91.5000        512
  91.6000        556
  91.7000        484
  91.8000        501
  91.9000        463
  92.0000        500
  92.1000        478
  92.2000        499
  92.3000        510
  92.4000        531
  92.5000        491
  92.6000        515
  92.7000        491
  92.8000        498
  92.9000        499
  93.0000        494
  93.1000        495
  93.2000        467
  93.3000        522
  93.4000        460
  93.5000        475
  93.6000        490
  93.7000        509
  93.8000        524
  93.9000        504
  94.0000        524
  94.1000        483
  94.2000        524
  94.3000        498
  94.4000        506
  94.5000        516
  94.6000        495
  94.7000        507
  94.8000        528
  94.9000        464
  95.0000        478
  95.1000        471
  95.2000        499
  95.3000        517
  95.4000        486
  95.5000        508
  95.6000        527
  95.7000        467
  95.8000        535
  95.9000        482
  96.0000        511
  96.1000        497
  96.2000        487
  96.3000        507
  96.4000        492
  96.5000        473
  96.6000        485
  96.7000        528
  96.8000        527
  96.9000        478
  97.0000        549
  97.1000        499
  97.2000        519
  97.3000        499
  97.4000        520
  97.5000        555
  97.6000        512
  97.7000        499
  97.8000        494
  97.9000        515
  98.0000        573
  98.1000        562
  98.2000        532
  98.3000        555
  98.4000        611
  98.5000        622
  98.6000        679
  98.7000        744
  98.8000        802
  98.9000        859
  99.0000        846
  99.1000        925
  99.2000        944
  99.3000        961
  99.4000        933
  99.5000        893
  99.6000        859
  99.7000        804
  99.8000        671
  99.9000        682
 100.0000        626
 100.1000        593
 100.2000        560
 100.3000        519
 100.4000        555
 100.5000        546
 100.6000        552
 100.7000        550
 100.8000        498
 100.9000        516
 101.0000        486
 101.1000        513
 101.2000        488
 101.3000        531
 101.4000        516
 101.5000        522
 101.6000        542
 101.7000        503
 101.8000        525
 101.9000        499
 102.0000        428
 102.1000        535
 102.2000        526
 102.3000        492
 102.4000        493
 102.5000        524
 102.6000        526
 102.7000        492
 102.8000        512
 102.9000        506
 103.0000        487
 103.1000        541
 103.2000        498
 103.3000        528
 103.4000        524
 103.5000        530
 103.6000        470
 103.7000        492
 103.8000        510
 103.9000        533
 104.0000        527
 104.1000        497
 104.2000        505
 104.3000        502
 104.4000        504
 104.5000        475
 104.6000        531
 104.7000        524
 104.8000        503
 104.9000        527
 105.0000        503
 105.1000        457
 105.2000        543
 105.3000        473
 105.4000        509
 105.5000        541
 105.6000        487
 105.7000        522
 105.8000        510
 105.9000        511
 106.0000        456
 106.1000        508
 106.2000        483
 106.3000        525
 106.4000        499
 106.5000        530
 106.6000        488
 106.7000        516
 106.8000        483
 106.9000        479
 107.0000        510
 107.1000        522
 107.2000        451
 107.3000        478
 107.4000        488
 107.5000        489
 107.6000        513
 107.7000        495
 107.8000        554
 107.9000        529
 108.0000        489
 108.1000        502
 108.2000        484
 108.3000        516
 108.4000        500
 108.5000        489
 108.6000        524
 108.7000        506
 108.8000        499
 108.9000        494
 109.0000        489
 109.1000        472
 109.2000        444
 109.3000        496
 109.4000        496
 109.5000        521
 109.6000        486
 109.7000        491
 109.8000        465
 109.9000        495
 110.0000        493
 110.1000        511
 110.2000        495
 110.3000        463
 110.4000        506
 110.5000        525
 110.6000        495
 110.7000        511
 110.8000        490
 110.9000        527
 111.0000        437
 111.1000        515
 111.2000        470
 111.3000        502
 111.4000        520
 111.5000        511
 111.6000        558
 111.7000        507
 111.8000        499
 111.9000        517
 112.0000        531
 112.1000        455
 112.2000        522
 112.3000        515
 112.4000        527
 112.5000        507
 112.6000        490
 112.7000        498
 112.8000        499
 112.9000        509
 113.0000        465
 113.1000        505
 113.2000        511
 113.3000        476
 113.4000        510
 113.5000        501
 113.6000        513
 113.7000        479
 113.8000        480
 113.9000        499
 114.0000        539
 114.1000        494
 114.2000        508
 114.3000        519
 114.4000        460
 114.5000        501
 114.6000        551
 114.7000        523
 114.8000        503
 114.9000        496
 115.0000        488
 115.1000        492
 115.2000        465
 115.3000        512
 115.4000        527
 115.5000        512
 115.6000        523
 115.7000        481
 115.8000        514
 115.9000        501
 116.0000        479
 116.1000        501
 116.2000        517
 116.3000        519
 116.4000        496
 116.5000        507
 116.6000        513
 116.7000        506
 116.8000        486
 116.9000        540
 117.0000        468
 117.1000        531
 117.2000        509
 117.3000        497
 117.4000        498
 117.5000        546
 117.6000        463
 117.7000        522
 117.8000        524
 117.9000        492
 118.0000        479
 118.1000        493
 118.2000        521
 118.3000        530
 118.4000        466
 118.5000        514
 118.6000        527
 118.7000        505
 118.8000        485
 118.9000        506
 119.0000        458
 119.1000        464
 119.2000        518
 119.3000        532
 119.4000        474
 119.5000        536
 119.6000        512
 119.7000        496
 119.8000        537
 119.9000        503
 120.0000        505
 120.1000        535
 120.2000        535
 120.3000        494
 120.4000        493
 120.5000        509
 120.6000        535
 120.7000        482
 120.8000        489
 120.9000        516
 121.0000        486
 121.1000        496
 121.2000        536
 121.3000        507
 121.4000        517
 121.5000        498
 121.6000        466
 121.7000        498
 121.8000        514
 121.9000        536
 122.0000        552
 122.1000        501
 122.2000        542
 122.3000        504
 122.4000        520
 122.5000        541
 122.6000        511
 122.7000        551
 122.8000        528
 122.9000        552
 123.0000        546
 123.1000        550
 123.2000        557
 123.3000        533
 123.4000        600
 123.5000        540
 123.6000        587
 123.7000        556
 123.8000        548
 123.9000        511
 124.0000        494
 124.1000        516
 124.2000        560
 124.3000        576
 124.4000        488
 124.5000        543
 124.6000        531
 124.7000        507
 124.8000        523
 124.9000        535
 125.0000        509
 125.1000        493
 125.2000        542
 125.3000        481
 125.4000        527
 125.5000        470
 125.6000        537
 125.7000        505
 125.8000        495
 125.9000        473
 126.0000        481
 126.1000        487
 126.2000        491
 126.3000        544
 126.4000        492
 126.5000        510
 126.6000        475
 126.7000        512
 126.8000        486
 126.9000        516
 127.0000        458
 127.1000        493
 127.2000        479
 127.3000        520
 127.4000        474
 127.5000        494
[...]
 129.2000        363
 129.3000        382
 129.4000        353
 129.5000        368
 129.6000        372
 129.7000        345
 129.8000        332
 129.9000        362
 130.0000        360

; Data for range 53
_DRIVE = COUPLED
_STEPTIME = 0.2
_STEPSIZE = 0.1
_STEPMODE = C
_START = 40
_THETA = 20
_2THETA = 40
_KHI = 80
_PHI = 0
_X = 25
_Y = -25
_Z = 0
_DETECTOR = 1
; Detector type : Scintillation counter
_HV = 687
_GAIN = 80
_LLD = 0.69
_ULD = 1.866
_DETECTORSLIT = unkn
_AUX1 = 0
_AUX2 = 0
_AUX3 = 0
_TIMESTARTED = 1.028e+004
_TEMP_RATE = -1
_TEMP_DELAY = -1
_KV = 35
_MA = 40
_RANGE_WL = 1.78897
_3DPLANE = 0
_V4_ADDITIONALDETECTOR = 0
_V4_D8_DIBNUM = 1
_V4_DETECTORNAME = "Detector 1"
_V4_TTLDETECTOR = None
_V4_DETECTORTYPE = 1
_V4_DETECTORFLAGS = 524545
_V4_DETECTORHV = 687
_V4_DETECTORGAIN = 80
_V4_DETECTORLLD1 = 0.69
_V4_DETECTORWW1 = 1.176
_V4_DETECTORLLD2 = 0
_V4_DETECTORWW2 = 0
_V4_DETECTORPS = 0
_V4_DETECTORDT = 0
_V4_DETECTORPILEUPTIME = 0
_V4_COUNTERS_MASK = 1
_V4_DRIVES_MASK = 0
_V4_ENCODERS_MASK = 0
_2THETACOUNTS = 1
; 2THETA  Cnt1_D1
  40.0000        185
  40.1000        187
  40.2000        173
  40.3000        173
  40.4000        164
  40.5000        165
  40.6000        137
  40.7000        169
  40.8000        178
  40.9000        195
  41.0000        159
  41.1000        173
  41.2000        193
  41.3000        179
  41.4000        155
  41.5000        179
  41.6000        162
  41.7000        189
  41.8000        194
  41.9000        199
  42.0000        182
  42.1000        163
  42.2000        174
  42.3000        167
  42.4000        179
  42.5000        185
  42.6000        195
  42.7000        179
  42.8000        178
  42.9000        199
  43.0000        209
  43.1000        220
  43.2000        263
  43.3000        270
  43.4000        281
  43.5000        270
  43.6000        250
  43.7000        285
  43.8000        258
  43.9000        246
  44.0000        220
  44.1000        221
  44.2000        203
  44.3000        221
  44.4000        182
  44.5000        194
  44.6000        190
  44.7000        202
  44.8000        167
  44.9000        177
  45.0000        182
  45.1000        170
  45.2000        209
  45.3000        185
  45.4000        169
  45.5000        180
  45.6000        198
  45.7000        203
  45.8000        186
  45.9000        203
  46.0000        181
  46.1000        182
  46.2000        205
  46.3000        171
  46.4000        194
  46.5000        189
  46.6000        164
  46.7000        180
  46.8000        214
  46.9000        175
  47.0000        221
  47.1000        192
  47.2000        184
  47.3000        165
  47.4000        189
  47.5000        198
  47.6000        186
  47.7000        188
  47.8000        180
  47.9000        202
  48.0000        208
  48.1000        200
  48.2000        198
  48.3000        161
  48.4000        209
  48.5000        211
  48.6000        211
  48.7000        185
  48.8000        186
  48.9000        178
  49.0000        217
  49.1000        205
  49.2000        210
  49.3000        206
  49.4000        205
  49.5000        177
  49.6000        204
  49.7000        168
  49.8000        186
  49.9000        214
  50.0000        243
  50.1000        231
  50.2000        218
  50.3000        237
  50.4000        244
  50.5000        253
  50.6000        260
  50.7000        251
  50.8000        272
  50.9000        256
  51.0000        306
  51.1000        263
  51.2000        367
  51.3000        388
  51.4000        449
  51.5000        506
  51.6000        597
  51.7000        694
  51.8000        778
  51.9000        872
  52.0000        899
  52.1000        920
  52.2000        963
  52.3000        956
  52.4000        951
  52.5000        830
  52.6000        772
  52.7000        711
  52.8000        647
  52.9000        632
  53.0000        576
  53.1000        431
  53.2000        413
  53.3000        348
  53.4000        294
  53.5000        278
  53.6000        249
  53.7000        219
  53.8000        228
  53.9000        241
  54.0000        232
  54.1000        193
  54.2000        226
  54.3000        233
  54.4000        242
  54.5000        248
  54.6000        226
  54.7000        192
  54.8000        231
  54.9000        218
  55.0000        206
  55.1000        210
  55.2000        245
  55.3000        243
  55.4000        242
  55.5000        238
  55.6000        225
  55.7000        194
  55.8000        196
  55.9000        191
  56.0000        208
  56.1000        244
  56.2000        235
  56.3000        238
  56.4000        225
  56.5000        219
  56.6000        209
  56.7000        239
  56.8000        223
  56.9000        205
  57.0000        239
  57.1000        222
  57.2000        232
  57.3000        232
  57.4000        229
  57.5000        207
  57.6000        220
  57.7000        234
  57.8000        231
  57.9000        236
  58.0000        236
  58.1000        219
  58.2000        224
  58.3000        206
  58.4000        241
  58.5000        214
  58.6000        238
  58.7000        203
  58.8000        246
  58.9000        228
  59.0000        266
  59.1000        226
  59.2000        218
  59.3000        230
  59.4000        249
  59.5000        198
  59.6000        220
  59.7000        228
  59.8000        206
  59.9000        189
  60.0000        226
  60.1000        226
  60.2000        220
  60.3000        224
  60.4000        225
  60.5000        217
  60.6000        226
  60.7000        203
  60.8000        208
  60.9000        218
  61.0000        215
  61.1000        226
  61.2000        214
  61.3000        251
  61.4000        221
  61.5000        226
  61.6000        239
  61.7000        221
  61.8000        230
  61.9000        211
  62.0000        249
  62.1000        214
  62.2000        227
  62.3000        239
  62.4000        214
  62.5000        235
  62.6000        236
  62.7000        242
  62.8000        249
  62.9000        227
  63.0000        215
  63.1000        233
  63.2000        260
  63.3000        252
  63.4000        230
  63.5000        226
  63.6000        232
  63.7000        254
  63.8000        240
  63.9000        242
  64.0000        232
  64.1000        246
  64.2000        222
  64.3000        216
  64.4000        242
  64.5000        232
  64.6000        221
  64.7000        260
  64.8000        229
  64.9000        256
  65.0000        216
  65.1000        223
  65.2000        246
  65.3000        222
  65.4000        245
  65.5000        219
  65.6000        265
  65.7000        230
  65.8000        228
  65.9000        243
  66.0000        227
  66.1000        250
  66.2000        241
  66.3000        251
  66.4000        239
  66.5000        229
  66.6000        231
  66.7000        255
  66.8000        242
  66.9000        291
  67.0000        239
  67.1000        219
  67.2000        243
  67.3000        268
  67.4000        249
  67.5000        239
  67.6000        243
  67.7000        243
  67.8000        265
  67.9000        265
  68.0000        232
  68.1000        239
  68.2000        216
  68.3000        243
  68.4000        246
  68.5000        247
  68.6000        232
  68.7000        217
  68.8000        257
  68.9000        236
  69.0000        220
  69.1000        254
  69.2000        277
  69.3000        222
  69.4000        243
  69.5000        268
  69.6000        280
  69.7000        245
  69.8000        283
  69.9000        223
  70.0000        248
  70.1000        222
  70.2000        238
  70.3000        242
  70.4000        267
  70.5000        262
  70.6000        283
  70.7000        238
  70.8000        259
  70.9000        275
  71.0000        248
  71.1000        275
  71.2000        248
  71.3000        250
  71.4000        277
  71.5000        264
  71.6000        236
  71.7000        247
  71.8000        256
  71.9000        236
  72.0000        254
  72.1000        245
  72.2000        236
  72.3000        248
  72.4000        270
  72.5000        273
  72.6000        299
  72.7000        262
  72.8000        252
  72.9000        250
  73.0000        261
  73.1000        276
  73.2000        256
  73.3000        277
  73.4000        255
  73.5000        231
  73.6000        244
  73.7000        243
  73.8000        238
  73.9000        276
  74.0000        272
  74.1000        267
  74.2000        245
  74.3000        293
  74.4000        283
  74.5000        275
  74.6000        274
  74.7000        267
  74.8000        281
  74.9000        287
  75.0000        282
  75.1000        292
  75.2000        269
  75.3000        247
  75.4000        269
  75.5000        289
  75.6000        279
  75.7000        302
  75.8000        297
  75.9000        285
  76.0000        290
  76.1000        310
  76.2000        327
  76.3000        341
  76.4000        340
  76.5000        372
  76.6000        316
  76.7000        331
  76.8000        324
  76.9000        320
  77.0000        319
  77.1000        339
  77.2000        329
  77.3000        306
  77.4000        320
  77.5000        306
  77.6000        310
  77.7000        312
  77.8000        290
  77.9000        298
  78.0000        292
  78.1000        308
  78.2000        292
  78.3000        285
  78.4000        268
  78.5000        268
  78.6000        294
  78.7000        284
  78.8000        286
  78.9000        273
  79.0000        304
  79.1000        268
  79.2000        279
  79.3000        286
  79.4000        263
  79.5000        269
  79.6000        281
  79.7000        300
  79.8000        291
  79.9000        274
  80.0000        282
  80.1000        256
  80.2000        247
  80.3000        280
  80.4000        293
  80.5000        287
  80.6000        265
  80.7000        290
  80.8000        288
  80.9000        278
  81.0000        275
  81.1000        304
  81.2000        290
  81.3000        266
  81.4000        299
  81.5000        279
  81.6000        320
  81.7000        268
  81.8000        307
  81.9000        276
  82.0000        304
  82.1000        276
  82.2000        284
  82.3000        292
  82.4000        285
  82.5000        290
  82.6000        289
  82.7000        305
  82.8000        319
  82.9000        277
  83.0000        295
  83.1000        289
  83.2000        258
  83.3000        249
  83.4000        290
  83.5000        269
  83.6000        290
  83.7000        311
  83.8000        301
  83.9000        324
  84.0000        306
  84.1000        295
  84.2000        278
  84.3000        293
  84.4000        317
  84.5000        316
  84.6000        301
  84.7000        303
  84.8000        277
  84.9000        302
  85.0000        285
  85.1000        271
  85.2000        300
  85.3000        291
  85.4000        309
  85.5000        320
  85.6000        295
  85.7000        288
  85.8000        287
  85.9000        284
  86.0000        272
  86.1000        291
  86.2000        273
  86.3000        329
  86.4000        316
  86.5000        303
  86.6000        313
  86.7000        299
  86.8000        284
  86.9000        295
  87.0000        304
  87.1000        301
  87.2000        276
  87.3000        295
  87.4000        296
  87.5000        284
  87.6000        304
  87.7000        302
  87.8000        298
  87.9000        308
  88.0000        319
  88.1000        311
  88.2000        293
  88.3000        307
  88.4000        303
  88.5000        310
  88.6000        308
  88.7000        326
  88.8000        322
  88.9000        315
  89.0000        305
  89.1000        324
  89.2000        331
  89.3000        305
  89.4000        333
  89.5000        314
  89.6000        293
  89.7000        315
  89.8000        304
  89.9000        293
  90.0000        344
  90.1000        299
  90.2000        289
  90.3000        286
  90.4000        308
  90.5000        293
  90.6000        333
  90.7000        316
  90.8000        308
  90.9000        322
  91.0000        353
  91.1000        316
  91.2000        315
  91.3000        309
  91.4000        332
  91.5000        347
  91.6000        317
  91.7000        293
  91.8000        324
  91.9000        326
  92.0000        307
  92.1000        350
  92.2000        317
  92.3000        311
  92.4000        337
  92.5000        316
  92.6000        287
  92.7000        304
  92.8000        335
  92.9000        294
  93.0000        338
  93.1000        298
  93.2000        324
  93.3000        336
  93.4000        305
  93.5000        307
  93.6000        328
  93.7000        311
  93.8000        344
  93.9000        351
  94.0000        312
  94.1000        328
  94.2000        324
  94.3000        323
  94.4000        324
  94.5000        310
  94.6000        309
  94.7000        372
  94.8000        305
  94.9000        322
  95.0000        328
  95.1000        343
  95.2000        293
  95.3000        353
  95.4000        339
  95.5000        343
  95.6000        343
  95.7000        347
  95.8000        349
  95.9000        338
  96.0000        334
  96.1000        327
  96.2000        349
  96.3000        350
  96.4000        305
  96.5000        348
  96.6000        327
  96.7000        336
  96.8000        303
  96.9000        337
  97.0000        366
  97.1000        340
  97.2000        317
  97.3000        337
  97.4000        346
  97.5000        344
  97.6000        342
  97.7000        348
  97.8000        393
  97.9000        378
  98.0000        436
  98.1000        438
  98.2000        429
  98.3000        427
  98.4000        483
  98.5000        511
  98.6000        548
  98.7000        511
  98.8000        555
  98.9000        563
  99.0000        601
  99.1000        623
  99.2000        579
  99.3000        644
  99.4000        572
  99.5000        545
  99.6000        528
  99.7000        569
  99.8000        543
  99.9000        475
 100.0000        509
 100.1000        464
 100.2000        441
 100.3000        414
 100.4000        432
 100.5000        360
 100.6000        375
 100.7000        394
 100.8000        345
 100.9000        342
 101.0000        331
 101.1000        346
 101.2000        358
 101.3000        357
 101.4000        351
 101.5000        371
 101.6000        335
 101.7000        354
 101.8000        344
 101.9000        305
 102.0000        340
 102.1000        371
 102.2000        333
 102.3000        317
 102.4000        344
 102.5000        344
 102.6000        345
 102.7000        339
 102.8000        360
 102.9000        324
 103.0000        338
 103.1000        347
 103.2000        346
 103.3000        319
 103.4000        381
 103.5000        341
 103.6000        337
 103.7000        347
 103.8000        362
 103.9000        366
 104.0000        359
 104.1000        326
 104.2000        321
 104.3000        353
 104.4000        360
 104.5000        344
 104.6000        328
 104.7000        350
 104.8000        346
 104.9000        353
 105.0000        365
 105.1000        359
 105.2000        369
 105.3000        386
 105.4000        337
 105.5000        341
 105.6000        354
 105.7000        358
 105.8000        321
 105.9000        370
 106.0000        374
 106.1000        365
 106.2000        374
 106.3000        344
 106.4000        369
 106.5000        354
 106.6000        310
 106.7000        354
 106.8000        369
 106.9000        359
 107.0000        359
 107.1000        356
 107.2000        344
 107.3000        346
 107.4000        363
 107.5000        344
 107.6000        376
 107.7000        355
 107.8000        332
 107.9000        387
 108.0000        359
 108.1000        375
 108.2000        373
 108.3000        368
 108.4000        354
 108.5000        362
 108.6000        373
 108.7000        401
 108.8000        360
 108.9000        375
 109.0000        359
 109.1000        360
 109.2000        390
 109.3000        346
 109.4000        374
 109.5000        331
 109.6000        393
 109.7000        384
 109.8000        362
 109.9000        358
 110.0000        375
 110.1000        339
 110.2000        369
 110.3000        348
 110.4000        365
 110.5000        352
 110.6000        388
 110.7000        370
 110.8000        366
 110.9000        385
 111.0000        384
 111.1000        386
 111.2000        355
 111.3000        335
 111.4000        352
 111.5000        355
 111.6000        337
 111.7000        346
 111.8000        352
 111.9000        329
 112.0000        376
 112.1000        357
 112.2000        374
 112.3000        373
 112.4000        334
 112.5000        357
 112.6000        351
 112.7000        365
 112.8000        376
 112.9000        368
 113.0000        377
 113.1000        360
 113.2000        378
 113.3000        350
 113.4000        376
 113.5000        346
 113.6000        363
 113.7000        423
 113.8000        364
 113.9000        366
 114.0000        360
 114.1000        362
 114.2000        390
 114.3000        366
 114.4000        370
 114.5000        393
 114.6000        333
 114.7000        364
 114.8000        361
 114.9000        357
 115.0000        372
 115.1000        344
 115.2000        347
 115.3000        358
 115.4000        353
 115.5000        376
 115.6000        367
 115.7000        356
 115.8000        368
 115.9000        340
 116.0000        337
 116.1000        358
 116.2000        345
 116.3000        342
 116.4000        345
 116.5000        359
 116.6000        377
 116.7000        375
 116.8000        352
 116.9000        391
 117.0000        354
 117.1000        383
 117.2000        360
 117.3000        376
 117.4000        343
 117.5000        407
 117.6000        362
 117.7000        361
 117.8000        389
 117.9000        357
 118.0000        399
 118.1000        386
 118.2000        363
 118.3000        347
 118.4000        398
 118.5000        354
 118.6000        330
 118.7000        364
 118.8000        383
 118.9000        349
 119.0000        418
 119.1000        358
 119.2000        378
 119.3000        354
 119.4000        364
 119.5000        394
 119.6000        371
 119.7000        369
 119.8000        354
 119.9000        380
 120.0000        375
 120.1000        349
 120.2000        372
 120.3000        370
 120.4000        377
 120.5000        370
 120.6000        391
 120.7000        384
 120.8000        365
 120.9000        426
 121.0000        334
 121.1000        376
 121.2000        385
 121.3000        414
 121.4000        387
 121.5000        371
 121.6000        359
 121.7000        364
 121.8000        380
 121.9000        370
 122.0000        418
 122.1000        415
 122.2000        381
 122.3000        421
 122.4000        479
 122.5000        426
 122.6000        410
 122.7000        426
 122.8000        486
 122.9000        460
 123.0000        510
 123.1000        493
 123.2000        525
 123.3000        495
 123.4000        504
 123.5000        483
 123.6000        437
 123.7000        454
 123.8000        440
 123.9000        488
 124.0000        440
 124.1000        435
 124.2000        439
 124.3000        420
 124.4000        424
 124.5000        387
 124.6000        405
 124.7000        401
 124.8000        394
 124.9000        340
 125.0000        365
 125.1000        391
 125.2000        362
 125.3000        362
 125.4000        363
 125.5000        394
 125.6000        355
 125.7000        354
 125.8000        372
 125.9000        389
 126.0000        366
 126.1000        391
 126.2000        358
 126.3000        402
 126.4000        360
 126.5000        400
 126.6000        355
 126.7000        365
 126.8000        372
 126.9000        379
 127.0000        331
 127.1000        397
 127.2000        359
 127.3000        368
 127.4000        353
 127.5000        386
 127.6000        337
 127.7000        374
 127.8000        360
 127.9000        399
 128.0000        378
 128.1000        375
 128.2000        382
 128.3000        378
 128.4000        355
 128.5000        381
 128.6000        367
 128.7000        365
 128.8000        392
 128.9000        359
 129.0000        388
 129.1000        374
 129.2000        344
 129.3000        380
 129.4000        362
 129.5000        379
 129.6000        352
 129.7000        367
 129.8000        371
 129.9000        371
 130.0000        351