File: exp_dat/old/exp_2013_11_11/18pct_-10L.uxd
; (content of file C:\DIFFDAT1\GIFT\MDL\Seawoong Lee\20131104_MV8\equal_area_maxkhi080_n8_2th40_130_x00y25_-10L.raw)
_FILEVERSION = 3
_SAMPLE =
_+SAMPLE =
_SITE = Korea
_USER = Admin
_GONIOMETER_CODE = 20
; Goniometer : D8 theta/2theta, stage : Unknown
_SAMPLE_CHANGER_CODE = 0
_ATTACHMENTS_CODE = 0
_GONIOMETER_RADIUS = 300
_FIXED_DIVSLIT = 1
_FIXED_SAMPLESLIT = 0
_SOLLER_SLITS = 2
_FIXED_DETSLIT = 0.1
_MONOCHROMATOR = 0
; Incident beam monochromator : None
_SOLLER_SLITS_2 = 2
_THIN_FILM = N
_BETA_FILTER = Y
_FIXED_ANTISLIT = 0.6
_ANALYZER_CODE = 0
; Received beam analyzer : None
_DATEMEASURED = "07-Nov-2013 03:50:30"
_WL_UNIT = A
_WL1 = 1.78897
_WL2 = 1.79285
_WL3 = 1.62079
_WLRATIO = 0.5
_ANODE = Co
_V4_INF_CREATOR = XRDWizard
_V4_INF_CREATOR_VERSION = V2.9.0.22
_V4_INF_WIZARD_VERSION = V2.9.0.22
_V4_INF_WIZARD_ADDINS = V2.9.0.22
_V4_INF_WIZARD_DOCTYPE = XRD
_V4_INF_OSUSER = Postech
_V4_INF_USER = Admin
_V4_INF_SITE = Korea

; Data for range 1
_DRIVE = COUPLED
_STEPTIME = 0.2
_STEPSIZE = 0.1
_STEPMODE = C
_START = 40
_THETA = 20
_2THETA = 40
_KHI = 0
_PHI = 0
_X = 0
_Y = 25
_Z = 0
_DETECTOR = 1
; Detector type : Scintillation counter
_HV = 687
_GAIN = 80
_LLD = 0.69
_ULD = 1.866
_DETECTORSLIT = unkn
_AUX1 = 0
_AUX2 = 0
_AUX3 = 0
_TIMESTARTED = 28
_TEMP_RATE = -1
_TEMP_DELAY = -1
_KV = 35
_MA = 40
_RANGE_WL = 1.78897
_3DPLANE = 0
_V4_ADDITIONALDETECTOR = 0
_V4_D8_DIBNUM = 1
_V4_DETECTORNAME = "Detector 1"
_V4_TTLDETECTOR = None
_V4_DETECTORTYPE = 1
_V4_DETECTORFLAGS = 524545
_V4_DETECTORHV = 687
_V4_DETECTORGAIN = 80
_V4_DETECTORLLD1 = 0.69
_V4_DETECTORWW1 = 1.176
_V4_DETECTORLLD2 = 0
_V4_DETECTORWW2 = 0
_V4_DETECTORPS = 0
_V4_DETECTORDT = 0
_V4_DETECTORPILEUPTIME = 0
_V4_COUNTERS_MASK = 1
_V4_DRIVES_MASK = 0
_V4_ENCODERS_MASK = 0
_2THETACOUNTS = 1
; 2THETA  Cnt1_D1
  40.0000        513
  40.1000        550
  40.2000        531
  40.3000        538
  40.4000        537
  40.5000        559
  40.6000        564
  40.7000        526
  40.8000        552
  40.9000        558
  41.0000        545
  41.1000        513
  41.2000        544
  41.3000        525
  41.4000        506
  41.5000        547
  41.6000        537
  41.7000        526
  41.8000        578
  41.9000        508
  42.0000        545
  42.1000        548
  42.2000        482
  42.3000        547
  42.4000        536
  42.5000        529
  42.6000        536
  42.7000        497
  42.8000        529
  42.9000        555
  43.0000        547
  43.1000        498
  43.2000        520
  43.3000        542
  43.4000        552
  43.5000        511
  43.6000        528
  43.7000        531
  43.8000        500
  43.9000        501
  44.0000        526
  44.1000        523
  44.2000        498
  44.3000        512
  44.4000        538
  44.5000        525
  44.6000        509
  44.7000        550
  44.8000        535
  44.9000        481
  45.0000        517
  45.1000        528
  45.2000        515
  45.3000        497
  45.4000        532
  45.5000        545
  45.6000        522
  45.7000        529
  45.8000        540
  45.9000        507
  46.0000        561
  46.1000        543
  46.2000        539
  46.3000        525
  46.4000        531
  46.5000        525
  46.6000        523
  46.7000        495
  46.8000        547
  46.9000        509
  47.0000        502
  47.1000        529
  47.2000        528
  47.3000        499
  47.4000        527
  47.5000        534
  47.6000        541
  47.7000        543
  47.8000        530
  47.9000        524
  48.0000        539
  48.1000        512
  48.2000        548
  48.3000        516
  48.4000        524
  48.5000        525
  48.6000        532
  48.7000        510
  48.8000        500
  48.9000        531
  49.0000        555
  49.1000        511
  49.2000        510
  49.3000        512
  49.4000        544
  49.5000        531
  49.6000        503
  49.7000        518
  49.8000        515
  49.9000        529
  50.0000        498
  50.1000        513
  50.2000        541
  50.3000        523
  50.4000        517
  50.5000        537
  50.6000        588
  50.7000        556
  50.8000        550
  50.9000        512
  51.0000        619
  51.1000        594
  51.2000        537
  51.3000        608
  51.4000        600
  51.5000        654
  51.6000        746
  51.7000       1006
  51.8000       1212
  51.9000       1355
  52.0000       1519
  52.1000       1562
  52.2000       1469
  52.3000       1534
  52.4000       1440
  52.5000       1351
  52.6000       1055
  52.7000        869
  52.8000        712
  52.9000        570
  53.0000        521
  53.1000        599
  53.2000        495
  53.3000        558
  53.4000        551
  53.5000        570
  53.6000        537
  53.7000        522
  53.8000        522
  53.9000        522
  54.0000        563
  54.1000        518
  54.2000        587
  54.3000        527
  54.4000        482
  54.5000        515
  54.6000        506
  54.7000        549
  54.8000        561
  54.9000        545
  55.0000        538
  55.1000        495
  55.2000        570
  55.3000        517
  55.4000        562
  55.5000        539
  55.6000        499
  55.7000        510
  55.8000        511
  55.9000        529
  56.0000        516
  56.1000        518
  56.2000        503
  56.3000        516
  56.4000        534
  56.5000        535
  56.6000        506
  56.7000        520
  56.8000        534
  56.9000        564
  57.0000        559
  57.1000        539
  57.2000        583
  57.3000        509
  57.4000        514
  57.5000        511
  57.6000        535
  57.7000        542
  57.8000        527
  57.9000        530
  58.0000        521
  58.1000        471
  58.2000        546
  58.3000        513
  58.4000        565
  58.5000        523
  58.6000        491
  58.7000        550
  58.8000        507
  58.9000        537
  59.0000        485
  59.1000        526
  59.2000        549
  59.3000        526
  59.4000        533
  59.5000        538
  59.6000        562
  59.7000        517
  59.8000        529
  59.9000        500
  60.0000        532
  60.1000        485
  60.2000        545
  60.3000        556
  60.4000        513
  60.5000        491
  60.6000        507
  60.7000        502
  60.8000        496
  60.9000        479
  61.0000        515
  61.1000        558
  61.2000        527
  61.3000        528
  61.4000        528
  61.5000        562
  61.6000        562
  61.7000        551
  61.8000        526
  61.9000        492
  62.0000        518
  62.1000        523
  62.2000        501
  62.3000        568
  62.4000        530
  62.5000        522
  62.6000        499
  62.7000        484
  62.8000        584
  62.9000        528
  63.0000        532
  63.1000        545
  63.2000        525
  63.3000        464
  63.4000        532
  63.5000        509
  63.6000        518
  63.7000        511
  63.8000        527
  63.9000        506
  64.0000        541
  64.1000        549
  64.2000        540
  64.3000        544
  64.4000        483
  64.5000        499
  64.6000        503
  64.7000        485
  64.8000        528
  64.9000        515
  65.0000        506
  65.1000        491
  65.2000        531
  65.3000        505
  65.4000        528
  65.5000        509
  65.6000        495
  65.7000        512
  65.8000        496
  65.9000        534
  66.0000        520
  66.1000        483
  66.2000        527
  66.3000        479
  66.4000        486
  66.5000        508
  66.6000        492
  66.7000        508
  66.8000        498
  66.9000        525
  67.0000        523
  67.1000        518
  67.2000        498
  67.3000        526
  67.4000        530
  67.5000        499
  67.6000        541
  67.7000        529
  67.8000        514
  67.9000        476
  68.0000        542
  68.1000        523
  68.2000        524
  68.3000        508
  68.4000        518
  68.5000        519
  68.6000        515
  68.7000        508
  68.8000        522
  68.9000        489
  69.0000        526
  69.1000        492
  69.2000        540
  69.3000        534
  69.4000        500
  69.5000        542
  69.6000        510
  69.7000        499
  69.8000        510
  69.9000        510
  70.0000        516
  70.1000        509
  70.2000        473
  70.3000        490
  70.4000        466
  70.5000        505
  70.6000        459
  70.7000        527
  70.8000        531
  70.9000        541
  71.0000        531
  71.1000        558
  71.2000        502
  71.3000        525
  71.4000        500
  71.5000        508
  71.6000        513
  71.7000        499
  71.8000        539
  71.9000        566
  72.0000        515
  72.1000        533
  72.2000        480
  72.3000        540
  72.4000        499
  72.5000        524
  72.6000        537
  72.7000        538
  72.8000        540
  72.9000        472
  73.0000        500
  73.1000        526
  73.2000        508
  73.3000        524
  73.4000        527
  73.5000        536
  73.6000        512
  73.7000        509
  73.8000        491
  73.9000        526
  74.0000        483
  74.1000        550
  74.2000        541
  74.3000        551
  74.4000        504
  74.5000        533
  74.6000        509
  74.7000        565
  74.8000        475
  74.9000        496
  75.0000        501
  75.1000        521
  75.2000        566
  75.3000        549
  75.4000        522
  75.5000        542
  75.6000        548
  75.7000        534
  75.8000        578
  75.9000        555
  76.0000        560
  76.1000        607
  76.2000        584
  76.3000        689
  76.4000        689
  76.5000        799
  76.6000        862
  76.7000        929
  76.8000       1013
  76.9000       1013
  77.0000       1054
  77.1000        947
  77.2000        970
  77.3000        872
  77.4000        772
  77.5000        759
  77.6000        634
  77.7000        554
  77.8000        581
  77.9000        565
  78.0000        535
  78.1000        554
  78.2000        547
  78.3000        528
  78.4000        492
  78.5000        542
  78.6000        528
  78.7000        543
  78.8000        524
  78.9000        500
  79.0000        549
  79.1000        496
  79.2000        532
  79.3000        498
  79.4000        492
  79.5000        493
  79.6000        536
  79.7000        490
  79.8000        508
  79.9000        506
  80.0000        473
  80.1000        525
  80.2000        515
  80.3000        499
  80.4000        520
  80.5000        517
  80.6000        536
  80.7000        508
  80.8000        470
  80.9000        479
  81.0000        508
  81.1000        493
  81.2000        557
  81.3000        513
  81.4000        512
  81.5000        520
  81.6000        516
  81.7000        527
  81.8000        543
  81.9000        547
  82.0000        485
  82.1000        521
  82.2000        562
  82.3000        507
  82.4000        512
  82.5000        487
  82.6000        550
  82.7000        486
  82.8000        536
  82.9000        535
  83.0000        493
  83.1000        526
  83.2000        530
  83.3000        509
  83.4000        504
  83.5000        522
  83.6000        533
  83.7000        493
  83.8000        530
  83.9000        522
  84.0000        522
  84.1000        501
  84.2000        506
  84.3000        479
  84.4000        517
  84.5000        501
  84.6000        537
  84.7000        515
  84.8000        513
  84.9000        515
  85.0000        474
  85.1000        509
  85.2000        489
  85.3000        514
  85.4000        496
  85.5000        527
  85.6000        526
  85.7000        514
  85.8000        534
  85.9000        530
  86.0000        514
  86.1000        501
  86.2000        500
  86.3000        535
  86.4000        488
  86.5000        523
  86.6000        501
  86.7000        493
  86.8000        512
  86.9000        512
  87.0000        514
  87.1000        513
  87.2000        499
  87.3000        549
  87.4000        483
  87.5000        524
  87.6000        508
  87.7000        538
  87.8000        509
  87.9000        540
  88.0000        512
  88.1000        544
  88.2000        518
  88.3000        480
  88.4000        518
  88.5000        566
  88.6000        503
  88.7000        531
  88.8000        551
  88.9000        513
  89.0000        537
  89.1000        565
  89.2000        536
  89.3000        570
  89.4000        542
  89.5000        506
  89.6000        535
  89.7000        560
  89.8000        517
  89.9000        562
  90.0000        604
  90.1000        557
  90.2000        487
  90.3000        514
  90.4000        524
  90.5000        524
  90.6000        531
  90.7000        537
  90.8000        493
  90.9000        559
  91.0000        506
  91.1000        520
  91.2000        558
  91.3000        570
  91.4000        521
  91.5000        521
  91.6000        495
  91.7000        511
  91.8000        497
  91.9000        529
  92.0000        493
  92.1000        523
  92.2000        554
  92.3000        516
  92.4000        494
  92.5000        485
  92.6000        473
  92.7000        491
  92.8000        577
  92.9000        515
  93.0000        517
  93.1000        537
  93.2000        516
  93.3000        515
  93.4000        515
  93.5000        511
  93.6000        489
  93.7000        507
  93.8000        539
  93.9000        522
  94.0000        493
  94.1000        536
  94.2000        526
  94.3000        557
  94.4000        530
  94.5000        537
  94.6000        539
  94.7000        543
  94.8000        478
  94.9000        500
  95.0000        537
  95.1000        485
  95.2000        497
  95.3000        555
  95.4000        485
  95.5000        570
  95.6000        504
  95.7000        512
  95.8000        508
  95.9000        507
  96.0000        505
  96.1000        539
  96.2000        531
  96.3000        537
  96.4000        500
  96.5000        535
  96.6000        484
  96.7000        541
  96.8000        531
  96.9000        496
  97.0000        529
  97.1000        587
  97.2000        513
  97.3000        492
  97.4000        530
  97.5000        546
  97.6000        547
  97.7000        530
  97.8000        587
  97.9000        544
  98.0000        500
  98.1000        549
  98.2000        607
  98.3000        598
  98.4000        590
  98.5000        628
  98.6000        735
  98.7000        758
  98.8000        918
  98.9000       1049
  99.0000       1079
  99.1000       1266
  99.2000       1356
  99.3000       1424
  99.4000       1460
  99.5000       1256
  99.6000       1346
  99.7000       1161
  99.8000       1016
  99.9000        912
 100.0000        782
 100.1000        651
 100.2000        628
 100.3000        628
 100.4000        555
 100.5000        575
 100.6000        542
 100.7000        533
 100.8000        532
 100.9000        556
 101.0000        551
 101.1000        541
 101.2000        517
 101.3000        572
 101.4000        506
 101.5000        580
 101.6000        535
 101.7000        541
 101.8000        519
 101.9000        540
 102.0000        502
 102.1000        496
 102.2000        542
 102.3000        508
 102.4000        573
 102.5000        536
 102.6000        554
 102.7000        534
 102.8000        492
 102.9000        502
 103.0000        546
 103.1000        541
 103.2000        550
 103.3000        516
 103.4000        530
 103.5000        518
 103.6000        530
 103.7000        498
 103.8000        513
 103.9000        522
 104.0000        499
 104.1000        500
 104.2000        539
 104.3000        492
 104.4000        563
 104.5000        507
 104.6000        529
 104.7000        533
 104.8000        505
 104.9000        524
 105.0000        515
 105.1000        530
 105.2000        546
 105.3000        489
 105.4000        503
 105.5000        503
 105.6000        538
 105.7000        526
 105.8000        499
 105.9000        518
 106.0000        535
 106.1000        472
 106.2000        480
 106.3000        472
 106.4000        533
 106.5000        522
 106.6000        527
 106.7000        503
 106.8000        548
 106.9000        529
 107.0000        541
 107.1000        530
 107.2000        518
 107.3000        517
 107.4000        519
 107.5000        489
 107.6000        481
 107.7000        530
 107.8000        558
 107.9000        517
 108.0000        542
 108.1000        572
 108.2000        552
 108.3000        533
 108.4000        490
 108.5000        478
 108.6000        541
 108.7000        540
 108.8000        511
 108.9000        537
 109.0000        523
 109.1000        540
 109.2000        525
 109.3000        543
 109.4000        495
 109.5000        524
 109.6000        521
 109.7000        506
 109.8000        508
 109.9000        526
 110.0000        564
 110.1000        461
 110.2000        520
 110.3000        545
 110.4000        529
 110.5000        533
 110.6000        524
 110.7000        519
 110.8000        515
 110.9000        509
 111.0000        530
 111.1000        530
 111.2000        571
 111.3000        564
 111.4000        553
 111.5000        514
 111.6000        526
 111.7000        505
 111.8000        555
 111.9000        536
 112.0000        532
 112.1000        491
 112.2000        522
 112.3000        552
 112.4000        505
 112.5000        509
 112.6000        510
 112.7000        521
 112.8000        526
 112.9000        516
 113.0000        491
 113.1000        524
 113.2000        536
 113.3000        575
 113.4000        519
 113.5000        492
 113.6000        543
 113.7000        525
 113.8000        491
 113.9000        529
 114.0000        542
 114.1000        521
 114.2000        552
 114.3000        554
 114.4000        507
 114.5000        546
 114.6000        516
 114.7000        499
 114.8000        541
 114.9000        516
 115.0000        525
 115.1000        498
 115.2000        503
 115.3000        517
 115.4000        519
 115.5000        563
 115.6000        522
 115.7000        526
 115.8000        515
 115.9000        498
 116.0000        469
 116.1000        527
 116.2000        543
 116.3000        513
 116.4000        505
 116.5000        500
 116.6000        510
 116.7000        520
 116.8000        479
 116.9000        531
 117.0000        505
 117.1000        534
 117.2000        507
 117.3000        507
 117.4000        517
 117.5000        508
 117.6000        508
 117.7000        491
 117.8000        510
 117.9000        528
 118.0000        504
 118.1000        497
 118.2000        491
 118.3000        525
 118.4000        497
 118.5000        520
 118.6000        471
 118.7000        498
 118.8000        536
 118.9000        534
 119.0000        518
 119.1000        484
 119.2000        469
 119.3000        505
 119.4000        561
 119.5000        509
 119.6000        497
 119.7000        505
 119.8000        504
 119.9000        486
 120.0000        524
 120.1000        536
 120.2000        509
 120.3000        516
 120.4000        540
 120.5000        546
 120.6000        519
 120.7000        506
 120.8000        531
 120.9000        527
 121.0000        526
 121.1000        529
 121.2000        548
 121.3000        530
 121.4000        554
 121.5000        541
 121.6000        521
 121.7000        517
 121.8000        511
 121.9000        498
 122.0000        522
 122.1000        535
 122.2000        511
 122.3000        540
 122.4000        553
 122.5000        533
 122.6000        555
 122.7000        544
 122.8000        562
 122.9000        607
 123.0000        598
 123.1000        612
 123.2000        573
 123.3000        608
 123.4000        613
 123.5000        610
 123.6000        614
 123.7000        599
 123.8000        591
 123.9000        543
 124.0000        582
 124.1000        594
 124.2000        578
 124.3000        547
 124.4000        513
 124.5000        528
 124.6000        529
 124.7000        547
 124.8000        492
 124.9000        541
 125.0000        530
 125.1000        533
 125.2000        508
 125.3000        511
 125.4000        551
 125.5000        540
 125.6000        541
 125.7000        506
 125.8000        525
 125.9000        560
 126.0000        532
 126.1000        493
 126.2000        558
 126.3000        465
 126.4000        556
 126.5000        519
 126.6000        547
 126.7000        499
 126.8000        573
 126.9000        515
 127.0000        524
 127.1000        481
 127.2000        492
 127.3000        511
 127.4000        518
 127.5000        533
 127.6000        526
 127.7000        543
 127.8000        522
 127.9000        488
 128.0000        494
 128.1000        518
 128.2000        492
 128.3000        492
 128.4000        526
 128.5000        530
 128.6000        494
 128.7000        519
 128.8000        504
 128.9000        481
 129.0000        571
 129.1000        494
 129.2000        524
 129.3000        473
 129.4000        529
 129.5000        479
 129.6000        518
 129.7000        530
 129.8000        466
 129.9000        535
 130.0000        500

; Data for range 2
_DRIVE = COUPLED
_STEPTIME = 0.2
_STEPSIZE = 0.1
_STEPMODE = C
_START = 40
_THETA = 20
_2THETA = 40
_KHI = 10.5
_PHI = 60
_X = 0
_Y = 25
_Z = 0
_DETECTOR = 1
; Detector type : Scintillation counter
_HV = 687
_GAIN = 80
_LLD = 0.69
_ULD = 1.866
_DETECTORSLIT = unkn
_AUX1 = 0
_AUX2 = 0
_AUX3 = 0
_TIMESTARTED = 225
_TEMP_RATE = -1
_TEMP_DELAY = -1
_KV = 35
_MA = 40
_RANGE_WL = 1.78897
_3DPLANE = 0
_V4_ADDITIONALDETECTOR = 0
_V4_D8_DIBNUM = 1
_V4_DETECTORNAME = "Detector 1"
_V4_TTLDETECTOR = None
_V4_DETECTORTYPE = 1
_V4_DETECTORFLAGS = 524545
_V4_DETECTORHV = 687
_V4_DETECTORGAIN = 80
_V4_DETECTORLLD1 = 0.69
_V4_DETECTORWW1 = 1.176
_V4_DETECTORLLD2 = 0
_V4_DETECTORWW2 = 0
_V4_DETECTORPS = 0
_V4_DETECTORDT = 0
_V4_DETECTORPILEUPTIME = 0
_V4_COUNTERS_MASK = 1
_V4_DRIVES_MASK = 0
_V4_ENCODERS_MASK = 0
_2THETACOUNTS = 1
; 2THETA  Cnt1_D1
  40.0000        524
  40.1000        517
  40.2000        567
  40.3000        536
  40.4000        514
  40.5000        517
  40.6000        498
  40.7000        528
  40.8000        533
  40.9000        485
  41.0000        478
  41.1000        512
  41.2000        492
  41.3000        543
  41.4000        513
  41.5000        534
  41.6000        493
  41.7000        504
  41.8000        470
  41.9000        488
  42.0000        516
  42.1000        538
  42.2000        577
  42.3000        492
  42.4000        502
  42.5000        519
  42.6000        551
  42.7000        510
  42.8000        517
  42.9000        536
  43.0000        490
  43.1000        527
  43.2000        551
  43.3000        523
  43.4000        511
  43.5000        492
  43.6000        506
  43.7000        523
  43.8000        500
  43.9000        498
  44.0000        540
  44.1000        531
  44.2000        526
  44.3000        530
  44.4000        527
  44.5000        568
  44.6000        487
  44.7000        487
  44.8000        473
  44.9000        531
  45.0000        468
  45.1000        535
  45.2000        526
  45.3000        494
  45.4000        484
  45.5000        514
  45.6000        513
  45.7000        524
  45.8000        509
  45.9000        528
  46.0000        546
  46.1000        559
  46.2000        520
  46.3000        525
  46.4000        508
  46.5000        495
  46.6000        519
  46.7000        550
  46.8000        547
  46.9000        536
  47.0000        537
  47.1000        551
  47.2000        512
  47.3000        519
  47.4000        538
  47.5000        503
  47.6000        531
  47.7000        490
  47.8000        534
  47.9000        487
  48.0000        534
  48.1000        474
  48.2000        544
  48.3000        512
  48.4000        522
  48.5000        538
  48.6000        520
  48.7000        528
  48.8000        534
  48.9000        488
  49.0000        560
  49.1000        538
  49.2000        555
  49.3000        508
  49.4000        520
  49.5000        477
  49.6000        535
  49.7000        516
  49.8000        517
  49.9000        563
  50.0000        509
  50.1000        510
  50.2000        535
  50.3000        538
  50.4000        534
  50.5000        560
  50.6000        600
  50.7000        555
  50.8000        634
  50.9000        581
  51.0000        623
  51.1000        643
  51.2000        633
  51.3000        666
  51.4000        649
  51.5000        748
  51.6000        891
  51.7000       1191
  51.8000       1410
  51.9000       1606
  52.0000       1688
  52.1000       1737
  52.2000       1832
  52.3000       1711
  52.4000       1600
  52.5000       1451
  52.6000       1230
  52.7000        914
  52.8000        713
  52.9000        602
  53.0000        566
  53.1000        525
  53.2000        520
  53.3000        546
  53.4000        491
  53.5000        567
  53.6000        543
  53.7000        521
  53.8000        516
  53.9000        558
  54.0000        510
  54.1000        550
  54.2000        569
  54.3000        504
  54.4000        545
  54.5000        526
  54.6000        489
  54.7000        554
  54.8000        516
  54.9000        540
  55.0000        545
  55.1000        509
  55.2000        517
  55.3000        518
  55.4000        508
  55.5000        518
  55.6000        523
  55.7000        531
  55.8000        568
  55.9000        517
  56.0000        529
  56.1000        551
  56.2000        539
  56.3000        531
  56.4000        548
  56.5000        564
  56.6000        521
  56.7000        506
  56.8000        481
  56.9000        575
  57.0000        537
  57.1000        567
  57.2000        526
  57.3000        509
  57.4000        546
  57.5000        514
  57.6000        524
  57.7000        560
  57.8000        509
  57.9000        512
  58.0000        530
  58.1000        464
  58.2000        521
  58.3000        539
  58.4000        547
  58.5000        525
  58.6000        554
  58.7000        564
  58.8000        506
  58.9000        530
  59.0000        556
  59.1000        553
  59.2000        554
  59.3000        551
  59.4000        565
  59.5000        515
  59.6000        531
  59.7000        513
  59.8000        579
  59.9000        588
  60.0000        509
  60.1000        541
  60.2000        506
  60.3000        515
  60.4000        535
  60.5000        563
  60.6000        514
  60.7000        524
  60.8000        505
  60.9000        539
  61.0000        530
  61.1000        498
  61.2000        519
  61.3000        505
  61.4000        506
  61.5000        488
  61.6000        544
  61.7000        568
  61.8000        530
  61.9000        549
  62.0000        510
  62.1000        552
  62.2000        500
  62.3000        510
  62.4000        499
  62.5000        516
  62.6000        493
  62.7000        525
  62.8000        524
  62.9000        565
  63.0000        552
  63.1000        506
  63.2000        516
  63.3000        505
  63.4000        561
  63.5000        550
  63.6000        476
  63.7000        473
  63.8000        518
  63.9000        497
  64.0000        498
  64.1000        529
  64.2000        524
  64.3000        504
  64.4000        520
  64.5000        495
  64.6000        497
  64.7000        511
  64.8000        519
  64.9000        547
  65.0000        525
  65.1000        490
  65.2000        514
  65.3000        501
  65.4000        502
  65.5000        568
  65.6000        517
  65.7000        485
  65.8000        502
  65.9000        505
  66.0000        520
  66.1000        507
  66.2000        544
  66.3000        513
  66.4000        493
  66.5000        551
  66.6000        545
  66.7000        517
  66.8000        494
  66.9000        529
  67.0000        560
  67.1000        529
  67.2000        474
  67.3000        516
  67.4000        515
  67.5000        499
  67.6000        517
  67.7000        503
  67.8000        544
  67.9000        526
  68.0000        530
  68.1000        547
  68.2000        530
  68.3000        513
  68.4000        520
  68.5000        539
  68.6000        527
  68.7000        548
  68.8000        539
  68.9000        508
  69.0000        505
  69.1000        539
  69.2000        518
  69.3000        496
  69.4000        537
  69.5000        529
  69.6000        486
  69.7000        517
  69.8000        518
  69.9000        482
  70.0000        502
  70.1000        509
  70.2000        507
  70.3000        494
  70.4000        513
  70.5000        547
  70.6000        483
  70.7000        497
  70.8000        543
  70.9000        524
  71.0000        518
  71.1000        502
  71.2000        476
  71.3000        511
  71.4000        502
  71.5000        543
  71.6000        538
  71.7000        510
  71.8000        491
  71.9000        509
  72.0000        527
  72.1000        585
  72.2000        528
  72.3000        520
  72.4000        538
  72.5000        513
  72.6000        536
  72.7000        551
  72.8000        517
  72.9000        514
  73.0000        527
  73.1000        499
  73.2000        486
  73.3000        523
  73.4000        506
  73.5000        483
  73.6000        506
  73.7000        559
  73.8000        483
  73.9000        510
  74.0000        515
  74.1000        457
  74.2000        518
  74.3000        492
  74.4000        544
  74.5000        572
  74.6000        514
  74.7000        499
  74.8000        498
  74.9000        488
  75.0000        591
  75.1000        545
  75.2000        509
  75.3000        527
  75.4000        511
  75.5000        507
  75.6000        571
  75.7000        506
  75.8000        541
  75.9000        534
  76.0000        523
  76.1000        555
  76.2000        538
  76.3000        578
  76.4000        604
  76.5000        613
  76.6000        728
  76.7000        723
  76.8000        739
  76.9000        759
  77.0000        764
  77.1000        683
  77.2000        721
  77.3000        697
  77.4000        649
  77.5000        581
  77.6000        562
  77.7000        560
  77.8000        571
  77.9000        509
  78.0000        515
  78.1000        549
  78.2000        498
  78.3000        528
  78.4000        521
  78.5000        527
  78.6000        519
  78.7000        526
  78.8000        536
  78.9000        535
  79.0000        481
  79.1000        530
  79.2000        533
  79.3000        540
  79.4000        530
  79.5000        537
  79.6000        535
  79.7000        520
  79.8000        498
  79.9000        481
  80.0000        498
  80.1000        484
  80.2000        492
  80.3000        526
  80.4000        542
  80.5000        533
  80.6000        505
  80.7000        566
  80.8000        505
  80.9000        507
  81.0000        529
  81.1000        497
  81.2000        494
  81.3000        529
  81.4000        534
  81.5000        511
  81.6000        517
  81.7000        526
  81.8000        494
  81.9000        541
  82.0000        509
  82.1000        533
  82.2000        511
  82.3000        520
  82.4000        512
  82.5000        526
  82.6000        516
  82.7000        496
  82.8000        527
  82.9000        509
  83.0000        543
  83.1000        564
  83.2000        517
  83.3000        465
  83.4000        524
  83.5000        523
  83.6000        578
  83.7000        482
  83.8000        496
  83.9000        535
  84.0000        505
  84.1000        536
  84.2000        493
  84.3000        508
  84.4000        515
  84.5000        528
  84.6000        500
  84.7000        477
  84.8000        447
  84.9000        533
  85.0000        511
  85.1000        550
  85.2000        515
  85.3000        497
  85.4000        490
  85.5000        509
  85.6000        563
  85.7000        539
  85.8000        533
  85.9000        465
  86.0000        508
  86.1000        522
  86.2000        515
  86.3000        551
  86.4000        488
  86.5000        532
  86.6000        512
  86.7000        491
  86.8000        541
  86.9000        522
  87.0000        528
  87.1000        530
  87.2000        495
  87.3000        530
  87.4000        540
  87.5000        521
  87.6000        472
  87.7000        513
  87.8000        544
  87.9000        496
  88.0000        533
  88.1000        531
  88.2000        504
  88.3000        530
  88.4000        547
  88.5000        520
  88.6000        541
  88.7000        519
  88.8000        512
  88.9000        559
  89.0000        532
  89.1000        521
  89.2000        519
  89.3000        536
  89.4000        554
  89.5000        581
  89.6000        514
  89.7000        516
  89.8000        554
  89.9000        534
  90.0000        513
  90.1000        503
  90.2000        504
  90.3000        500
  90.4000        500
  90.5000        555
  90.6000        522
  90.7000        532
  90.8000        497
  90.9000        515
  91.0000        533
  91.1000        521
  91.2000        514
  91.3000        553
  91.4000        523
  91.5000        475
  91.6000        492
  91.7000        513
  91.8000        507
  91.9000        501
  92.0000        504
  92.1000        476
  92.2000        537
  92.3000        483
  92.4000        506
  92.5000        538
  92.6000        520
  92.7000        523
  92.8000        522
  92.9000        511
  93.0000        538
  93.1000        509
  93.2000        493
  93.3000        583
  93.4000        504
  93.5000        506
  93.6000        510
  93.7000        544
  93.8000        529
  93.9000        477
  94.0000        546
  94.1000        515
  94.2000        488
  94.3000        502
  94.4000        524
  94.5000        532
  94.6000        524
  94.7000        521
  94.8000        485
  94.9000        492
  95.0000        523
  95.1000        512
  95.2000        492
  95.3000        525
  95.4000        506
  95.5000        468
  95.6000        543
  95.7000        567
  95.8000        549
  95.9000        519
  96.0000        496
  96.1000        513
  96.2000        529
  96.3000        539
  96.4000        494
  96.5000        535
  96.6000        538
  96.7000        500
  96.8000        533
  96.9000        489
  97.0000        516
  97.1000        530
  97.2000        551
  97.3000        544
  97.4000        549
  97.5000        520
  97.6000        555
  97.7000        561
  97.8000        513
  97.9000        492
  98.0000        557
  98.1000        555
  98.2000        520
  98.3000        583
  98.4000        560
  98.5000        644
  98.6000        651
  98.7000        676
  98.8000        800
  98.9000        925
  99.0000        955
  99.1000       1000
  99.2000       1076
  99.3000       1075
  99.4000       1074
  99.5000       1089
  99.6000       1052
  99.7000        913
  99.8000        814
  99.9000        747
 100.0000        707
 100.1000        605
 100.2000        616
 100.3000        581
 100.4000        584
 100.5000        568
 100.6000        565
 100.7000        545
 100.8000        526
 100.9000        533
 101.0000        539
 101.1000        534
 101.2000        472
 101.3000        544
 101.4000        552
 101.5000        525
 101.6000        507
 101.7000        540
 101.8000        591
 101.9000        517
 102.0000        494
 102.1000        538
 102.2000        499
 102.3000        509
 102.4000        531
 102.5000        516
 102.6000        516
 102.7000        549
 102.8000        481
 102.9000        503
 103.0000        565
 103.1000        505
 103.2000        533
 103.3000        543
 103.4000        499
 103.5000        527
 103.6000        523
 103.7000        515
 103.8000        542
 103.9000        558
 104.0000        518
 104.1000        517
 104.2000        529
 104.3000        518
 104.4000        547
 104.5000        550
 104.6000        541
 104.7000        518
 104.8000        528
 104.9000        512
 105.0000        499
 105.1000        481
 105.2000        532
 105.3000        508
 105.4000        476
 105.5000        491
 105.6000        490
 105.7000        478
 105.8000        543
 105.9000        483
 106.0000        524
 106.1000        545
 106.2000        506
 106.3000        537
 106.4000        513
 106.5000        526
 106.6000        490
 106.7000        537
 106.8000        531
 106.9000        528
 107.0000        505
 107.1000        482
 107.2000        515
 107.3000        560
 107.4000        494
 107.5000        535
 107.6000        477
 107.7000        520
 107.8000        526
 107.9000        546
 108.0000        489
 108.1000        548
 108.2000        490
 108.3000        522
 108.4000        506
 108.5000        502
 108.6000        521
 108.7000        570
 108.8000        518
 108.9000        539
 109.0000        517
 109.1000        523
 109.2000        505
 109.3000        512
 109.4000        553
 109.5000        499
 109.6000        522
 109.7000        529
 109.8000        536
 109.9000        551
 110.0000        498
 110.1000        510
 110.2000        485
 110.3000        534
 110.4000        483
 110.5000        514
 110.6000        515
 110.7000        508
 110.8000        540
 110.9000        513
 111.0000        548
 111.1000        567
 111.2000        476
 111.3000        518
 111.4000        520
 111.5000        511
 111.6000        482
 111.7000        554
 111.8000        556
 111.9000        516
 112.0000        531
 112.1000        517
 112.2000        513
 112.3000        515
 112.4000        511
 112.5000        497
 112.6000        520
 112.7000        503
 112.8000        528
 112.9000        469
 113.0000        524
 113.1000        511
 113.2000        536
 113.3000        517
 113.4000        502
 113.5000        492
 113.6000        513
 113.7000        510
 113.8000        535
 113.9000        466
 114.0000        520
 114.1000        532
 114.2000        529
 114.3000        539
 114.4000        519
 114.5000        520
 114.6000        529
 114.7000        521
 114.8000        524
 114.9000        514
 115.0000        522
 115.1000        525
 115.2000        529
 115.3000        502
 115.4000        518
 115.5000        525
 115.6000        504
 115.7000        499
 115.8000        512
 115.9000        516
 116.0000        524
 116.1000        531
 116.2000        513
 116.3000        548
 116.4000        536
 116.5000        553
 116.6000        545
 116.7000        539
 116.8000        512
 116.9000        512
 117.0000        530
 117.1000        503
 117.2000        547
 117.3000        518
 117.4000        550
 117.5000        498
 117.6000        511
 117.7000        504
 117.8000        497
 117.9000        493
 118.0000        469
 118.1000        504
 118.2000        525
 118.3000        481
 118.4000        556
 118.5000        500
 118.6000        509
 118.7000        547
 118.8000        531
 118.9000        525
 119.0000        490
 119.1000        515
 119.2000        555
 119.3000        505
 119.4000        515
 119.5000        500
 119.6000        493
 119.7000        535
 119.8000        571
 119.9000        561
 120.0000        535
 120.1000        528
 120.2000        521
 120.3000        548
 120.4000        495
 120.5000        477
 120.6000        523
 120.7000        541
 120.8000        475
 120.9000        532
 121.0000        542
 121.1000        540
 121.2000        535
 121.3000        519
 121.4000        543
 121.5000        498
 121.6000        512
 121.7000        566
 121.8000        552
 121.9000        581
 122.0000        573
 122.1000        535
 122.2000        531
 122.3000        535
 122.4000        554
 122.5000        569
 122.6000        529
 122.7000        525
 122.8000        576
 122.9000        584
 123.0000        586
 123.1000        626
 123.2000        629
 123.3000        644
 123.4000        622
 123.5000        594
 123.6000        630
 123.7000        568
 123.8000        571
 123.9000        593
 124.0000        606
 124.1000        544
 124.2000        544
 124.3000        542
 124.4000        574
 124.5000        528
 124.6000        562
 124.7000        560
 124.8000        536
 124.9000        523
 125.0000        520
 125.1000        471
 125.2000        520
 125.3000        499
 125.4000        508
 125.5000        498
 125.6000        506
 125.7000        562
 125.8000        510
 125.9000        502
 126.0000        508
 126.1000        494
 126.2000        563
 126.3000        565
 126.4000        547
 126.5000        494
 126.6000        530
 126.7000        493
 126.8000        522
 126.9000        547
 127.0000        505
 127.1000        465
 127.2000        513
 127.3000        510
 127.4000        534
 127.5000        524
 127.6000        523
[...]
 129.1000        376
 129.2000        359
 129.3000        361
 129.4000        349
 129.5000        352
 129.6000        368
 129.7000        331
 129.8000        369
 129.9000        325
 130.0000        333

; Data for range 53
_DRIVE = COUPLED
_STEPTIME = 0.2
_STEPSIZE = 0.1
_STEPMODE = C
_START = 40
_THETA = 20
_2THETA = 40
_KHI = 80
_PHI = 0
_X = 0
_Y = 25
_Z = 0
_DETECTOR = 1
; Detector type : Scintillation counter
_HV = 687
_GAIN = 80
_LLD = 0.69
_ULD = 1.866
_DETECTORSLIT = unkn
_AUX1 = 0
_AUX2 = 0
_AUX3 = 0
_TIMESTARTED = 1.03e+004
_TEMP_RATE = -1
_TEMP_DELAY = -1
_KV = 35
_MA = 40
_RANGE_WL = 1.78897
_3DPLANE = 0
_V4_ADDITIONALDETECTOR = 0
_V4_D8_DIBNUM = 1
_V4_DETECTORNAME = "Detector 1"
_V4_TTLDETECTOR = None
_V4_DETECTORTYPE = 1
_V4_DETECTORFLAGS = 524545
_V4_DETECTORHV = 687
_V4_DETECTORGAIN = 80
_V4_DETECTORLLD1 = 0.69
_V4_DETECTORWW1 = 1.176
_V4_DETECTORLLD2 = 0
_V4_DETECTORWW2 = 0
_V4_DETECTORPS = 0
_V4_DETECTORDT = 0
_V4_DETECTORPILEUPTIME = 0
_V4_COUNTERS_MASK = 1
_V4_DRIVES_MASK = 0
_V4_ENCODERS_MASK = 0
_2THETACOUNTS = 1
; 2THETA  Cnt1_D1
  40.0000        173
  40.1000        188
  40.2000        185
  40.3000        190
  40.4000        191
  40.5000        197
  40.6000        175
  40.7000        195
  40.8000        176
  40.9000        180
  41.0000        178
  41.1000        171
  41.2000        174
  41.3000        184
  41.4000        204
  41.5000        189
  41.6000        192
  41.7000        197
  41.8000        195
  41.9000        178
  42.0000        184
  42.1000        197
  42.2000        212
  42.3000        170
  42.4000        202
  42.5000        197
  42.6000        210
  42.7000        249
  42.8000        253
  42.9000        257
  43.0000        279
  43.1000        290
  43.2000        317
  43.3000        286
  43.4000        308
  43.5000        268
  43.6000        261
  43.7000        268
  43.8000        246
  43.9000        274
  44.0000        251
  44.1000        229
  44.2000        242
  44.3000        213
  44.4000        176
  44.5000        177
  44.6000        201
  44.7000        190
  44.8000        209
  44.9000        230
  45.0000        215
  45.1000        182
  45.2000        185
  45.3000        222
  45.4000        200
  45.5000        201
  45.6000        191
  45.7000        190
  45.8000        198
  45.9000        190
  46.0000        188
  46.1000        197
  46.2000        216
  46.3000        209
  46.4000        203
  46.5000        189
  46.6000        203
  46.7000        193
  46.8000        201
  46.9000        219
  47.0000        192
  47.1000        184
  47.2000        205
  47.3000        218
  47.4000        216
  47.5000        196
  47.6000        211
  47.7000        209
  47.8000        206
  47.9000        183
  48.0000        197
  48.1000        228
  48.2000        219
  48.3000        221
  48.4000        228
  48.5000        194
  48.6000        207
  48.7000        204
  48.8000        203
  48.9000        196
  49.0000        225
  49.1000        191
  49.2000        212
  49.3000        225
  49.4000        210
  49.5000        188
  49.6000        234
  49.7000        195
  49.8000        246
  49.9000        228
  50.0000        242
  50.1000        250
  50.2000        266
  50.3000        264
  50.4000        254
  50.5000        272
  50.6000        304
  50.7000        302
  50.8000        308
  50.9000        297
  51.0000        309
  51.1000        349
  51.2000        351
  51.3000        428
  51.4000        488
  51.5000        566
  51.6000        641
  51.7000        706
  51.8000        760
  51.9000        849
  52.0000        893
  52.1000        928
  52.2000        930
  52.3000        937
  52.4000        914
  52.5000        956
  52.6000        910
  52.7000        863
  52.8000        807
  52.9000        784
  53.0000        630
  53.1000        635
  53.2000        554
  53.3000        455
  53.4000        401
  53.5000        330
  53.6000        272
  53.7000        295
  53.8000        258
  53.9000        243
  54.0000        260
  54.1000        246
  54.2000        218
  54.3000        253
  54.4000        221
  54.5000        254
  54.6000        241
  54.7000        210
  54.8000        255
  54.9000        227
  55.0000        248
  55.1000        266
  55.2000        236
  55.3000        247
  55.4000        230
  55.5000        241
  55.6000        231
  55.7000        233
  55.8000        242
  55.9000        249
  56.0000        260
  56.1000        253
  56.2000        233
  56.3000        266
  56.4000        228
  56.5000        259
  56.6000        237
  56.7000        247
  56.8000        245
  56.9000        232
  57.0000        221
  57.1000        235
  57.2000        236
  57.3000        238
  57.4000        248
  57.5000        263
  57.6000        236
  57.7000        259
  57.8000        248
  57.9000        270
  58.0000        236
  58.1000        267
  58.2000        269
  58.3000        248
  58.4000        249
  58.5000        259
  58.6000        242
  58.7000        243
  58.8000        269
  58.9000        247
  59.0000        264
  59.1000        247
  59.2000        261
  59.3000        272
  59.4000        266
  59.5000        264
  59.6000        267
  59.7000        248
  59.8000        240
  59.9000        263
  60.0000        265
  60.1000        259
  60.2000        248
  60.3000        249
  60.4000        262
  60.5000        281
  60.6000        292
  60.7000        236
  60.8000        250
  60.9000        263
  61.0000        256
  61.1000        243
  61.2000        230
  61.3000        260
  61.4000        261
  61.5000        246
  61.6000        284
  61.7000        235
  61.8000        246
  61.9000        263
  62.0000        247
  62.1000        265
  62.2000        255
  62.3000        273
  62.4000        282
  62.5000        245
  62.6000        244
  62.7000        273
  62.8000        262
  62.9000        254
  63.0000        256
  63.1000        283
  63.2000        250
  63.3000        303
  63.4000        254
  63.5000        267
  63.6000        272
  63.7000        291
  63.8000        277
  63.9000        233
  64.0000        261
  64.1000        228
  64.2000        260
  64.3000        268
  64.4000        277
  64.5000        304
  64.6000        249
  64.7000        262
  64.8000        253
  64.9000        262
  65.0000        267
  65.1000        293
  65.2000        230
  65.3000        280
  65.4000        265
  65.5000        269
  65.6000        273
  65.7000        279
  65.8000        275
  65.9000        266
  66.0000        263
  66.1000        256
  66.2000        256
  66.3000        265
  66.4000        260
  66.5000        239
  66.6000        279
  66.7000        285
  66.8000        265
  66.9000        255
  67.0000        266
  67.1000        270
  67.2000        282
  67.3000        280
  67.4000        292
  67.5000        281
  67.6000        259
  67.7000        263
  67.8000        287
  67.9000        245
  68.0000        275
  68.1000        280
  68.2000        310
  68.3000        282
  68.4000        255
  68.5000        272
  68.6000        249
  68.7000        298
  68.8000        271
  68.9000        299
  69.0000        309
  69.1000        270
  69.2000        307
  69.3000        288
  69.4000        293
  69.5000        295
  69.6000        276
  69.7000        315
  69.8000        272
  69.9000        282
  70.0000        282
  70.1000        283
  70.2000        270
  70.3000        265
  70.4000        303
  70.5000        272
  70.6000        280
  70.7000        275
  70.8000        281
  70.9000        324
  71.0000        303
  71.1000        289
  71.2000        310
  71.3000        286
  71.4000        289
  71.5000        305
  71.6000        275
  71.7000        299
  71.8000        306
  71.9000        303
  72.0000        283
  72.1000        265
  72.2000        291
  72.3000        291
  72.4000        306
  72.5000        303
  72.6000        298
  72.7000        307
  72.8000        297
  72.9000        293
  73.0000        301
  73.1000        299
  73.2000        325
  73.3000        274
  73.4000        300
  73.5000        313
  73.6000        299
  73.7000        303
  73.8000        280
  73.9000        299
  74.0000        308
  74.1000        299
  74.2000        300
  74.3000        305
  74.4000        298
  74.5000        331
  74.6000        311
  74.7000        307
  74.8000        316
  74.9000        329
  75.0000        335
  75.1000        323
  75.2000        299
  75.3000        315
  75.4000        302
  75.5000        310
  75.6000        320
  75.7000        304
  75.8000        339
  75.9000        336
  76.0000        343
  76.1000        379
  76.2000        365
  76.3000        351
  76.4000        348
  76.5000        386
  76.6000        372
  76.7000        386
  76.8000        372
  76.9000        375
  77.0000        354
  77.1000        340
  77.2000        327
  77.3000        368
  77.4000        329
  77.5000        334
  77.6000        351
  77.7000        353
  77.8000        329
  77.9000        356
  78.0000        334
  78.1000        364
  78.2000        329
  78.3000        342
  78.4000        291
  78.5000        349
  78.6000        306
  78.7000        294
  78.8000        316
  78.9000        326
  79.0000        329
  79.1000        306
  79.2000        347
  79.3000        315
  79.4000        360
  79.5000        325
  79.6000        313
  79.7000        344
  79.8000        332
  79.9000        299
  80.0000        314
  80.1000        333
  80.2000        305
  80.3000        299
  80.4000        311
  80.5000        343
  80.6000        303
  80.7000        308
  80.8000        287
  80.9000        306
  81.0000        311
  81.1000        311
  81.2000        322
  81.3000        340
  81.4000        350
  81.5000        328
  81.6000        349
  81.7000        362
  81.8000        330
  81.9000        348
  82.0000        325
  82.1000        323
  82.2000        331
  82.3000        297
  82.4000        313
  82.5000        310
  82.6000        350
  82.7000        293
  82.8000        332
  82.9000        296
  83.0000        336
  83.1000        322
  83.2000        328
  83.3000        298
  83.4000        368
  83.5000        359
  83.6000        313
  83.7000        311
  83.8000        282
  83.9000        325
  84.0000        327
  84.1000        344
  84.2000        327
  84.3000        308
  84.4000        333
  84.5000        287
  84.6000        336
  84.7000        332
  84.8000        344
  84.9000        309
  85.0000        331
  85.1000        339
  85.2000        308
  85.3000        313
  85.4000        333
  85.5000        341
  85.6000        326
  85.7000        322
  85.8000        340
  85.9000        348
  86.0000        335
  86.1000        326
  86.2000        280
  86.3000        338
  86.4000        310
  86.5000        334
  86.6000        322
  86.7000        341
  86.8000        326
  86.9000        348
  87.0000        359
  87.1000        320
  87.2000        344
  87.3000        349
  87.4000        336
  87.5000        353
  87.6000        336
  87.7000        315
  87.8000        323
  87.9000        358
  88.0000        343
  88.1000        335
  88.2000        331
  88.3000        335
  88.4000        340
  88.5000        322
  88.6000        346
  88.7000        330
  88.8000        349
  88.9000        364
  89.0000        361
  89.1000        338
  89.2000        363
  89.3000        331
  89.4000        350
  89.5000        357
  89.6000        359
  89.7000        352
  89.8000        352
  89.9000        360
  90.0000        357
  90.1000        348
  90.2000        343
  90.3000        342
  90.4000        339
  90.5000        365
  90.6000        346
  90.7000        365
  90.8000        342
  90.9000        325
  91.0000        362
  91.1000        346
  91.2000        326
  91.3000        351
  91.4000        379
  91.5000        354
  91.6000        368
  91.7000        379
  91.8000        335
  91.9000        375
  92.0000        337
  92.1000        364
  92.2000        348
  92.3000        341
  92.4000        349
  92.5000        338
  92.6000        356
  92.7000        368
  92.8000        402
  92.9000        359
  93.0000        351
  93.1000        335
  93.2000        328
  93.3000        354
  93.4000        338
  93.5000        332
  93.6000        364
  93.7000        353
  93.8000        363
  93.9000        360
  94.0000        348
  94.1000        364
  94.2000        333
  94.3000        356
  94.4000        329
  94.5000        341
  94.6000        341
  94.7000        357
  94.8000        326
  94.9000        336
  95.0000        347
  95.1000        360
  95.2000        359
  95.3000        343
  95.4000        370
  95.5000        323
  95.6000        362
  95.7000        326
  95.8000        363
  95.9000        395
  96.0000        345
  96.1000        350
  96.2000        333
  96.3000        339
  96.4000        357
  96.5000        403
  96.6000        339
  96.7000        292
  96.8000        337
  96.9000        385
  97.0000        370
  97.1000        358
  97.2000        377
  97.3000        371
  97.4000        377
  97.5000        371
  97.6000        389
  97.7000        355
  97.8000        321
  97.9000        390
  98.0000        350
  98.1000        430
  98.2000        423
  98.3000        480
  98.4000        483
  98.5000        473
  98.6000        511
  98.7000        520
  98.8000        512
  98.9000        549
  99.0000        589
  99.1000        547
  99.2000        621
  99.3000        550
  99.4000        566
  99.5000        569
  99.6000        567
  99.7000        530
  99.8000        525
  99.9000        505
 100.0000        498
 100.1000        495
 100.2000        447
 100.3000        458
 100.4000        440
 100.5000        394
 100.6000        418
 100.7000        409
 100.8000        377
 100.9000        359
 101.0000        321
 101.1000        376
 101.2000        347
 101.3000        352
 101.4000        385
 101.5000        349
 101.6000        374
 101.7000        356
 101.8000        370
 101.9000        371
 102.0000        320
 102.1000        344
 102.2000        377
 102.3000        381
 102.4000        367
 102.5000        341
 102.6000        361
 102.7000        376
 102.8000        368
 102.9000        367
 103.0000        367
 103.1000        320
 103.2000        371
 103.3000        343
 103.4000        385
 103.5000        369
 103.6000        360
 103.7000        356
 103.8000        365
 103.9000        322
 104.0000        365
 104.1000        345
 104.2000        370
 104.3000        365
 104.4000        354
 104.5000        343
 104.6000        368
 104.7000        370
 104.8000        347
 104.9000        344
 105.0000        368
 105.1000        367
 105.2000        351
 105.3000        351
 105.4000        373
 105.5000        370
 105.6000        365
 105.7000        347
 105.8000        368
 105.9000        360
 106.0000        344
 106.1000        384
 106.2000        347
 106.3000        400
 106.4000        348
 106.5000        352
 106.6000        358
 106.7000        364
 106.8000        342
 106.9000        350
 107.0000        355
 107.1000        363
 107.2000        346
 107.3000        354
 107.4000        350
 107.5000        358
 107.6000        372
 107.7000        354
 107.8000        364
 107.9000        338
 108.0000        355
 108.1000        360
 108.2000        352
 108.3000        404
 108.4000        367
 108.5000        377
 108.6000        374
 108.7000        347
 108.8000        324
 108.9000        374
 109.0000        337
 109.1000        398
 109.2000        365
 109.3000        391
 109.4000        342
 109.5000        348
 109.6000        360
 109.7000        382
 109.8000        367
 109.9000        356
 110.0000        369
 110.1000        369
 110.2000        365
 110.3000        353
 110.4000        384
 110.5000        371
 110.6000        351
 110.7000        374
 110.8000        399
 110.9000        381
 111.0000        374
 111.1000        372
 111.2000        396
 111.3000        395
 111.4000        388
 111.5000        356
 111.6000        362
 111.7000        361
 111.8000        370
 111.9000        347
 112.0000        373
 112.1000        396
 112.2000        385
 112.3000        399
 112.4000        376
 112.5000        370
 112.6000        340
 112.7000        379
 112.8000        352
 112.9000        370
 113.0000        332
 113.1000        334
 113.2000        380
 113.3000        360
 113.4000        410
 113.5000        354
 113.6000        391
 113.7000        349
 113.8000        388
 113.9000        363
 114.0000        342
 114.1000        382
 114.2000        368
 114.3000        366
 114.4000        359
 114.5000        374
 114.6000        380
 114.7000        370
 114.8000        369
 114.9000        366
 115.0000        386
 115.1000        352
 115.2000        361
 115.3000        359
 115.4000        362
 115.5000        376
 115.6000        372
 115.7000        368
 115.8000        385
 115.9000        359
 116.0000        366
 116.1000        346
 116.2000        393
 116.3000        358
 116.4000        375
 116.5000        337
 116.6000        369
 116.7000        385
 116.8000        365
 116.9000        370
 117.0000        370
 117.1000        306
 117.2000        351
 117.3000        393
 117.4000        370
 117.5000        355
 117.6000        358
 117.7000        408
 117.8000        354
 117.9000        386
 118.0000        390
 118.1000        340
 118.2000        395
 118.3000        388
 118.4000        374
 118.5000        366
 118.6000        396
 118.7000        357
 118.8000        361
 118.9000        384
 119.0000        359
 119.1000        396
 119.2000        402
 119.3000        421
 119.4000        383
 119.5000        409
 119.6000        322
 119.7000        404
 119.8000        367
 119.9000        365
 120.0000        350
 120.1000        359
 120.2000        340
 120.3000        336
 120.4000        388
 120.5000        372
 120.6000        410
 120.7000        403
 120.8000        352
 120.9000        414
 121.0000        357
 121.1000        352
 121.2000        391
 121.3000        385
 121.4000        371
 121.5000        408
 121.6000        363
 121.7000        347
 121.8000        397
 121.9000        431
 122.0000        429
 122.1000        413
 122.2000        417
 122.3000        409
 122.4000        443
 122.5000        404
 122.6000        430
 122.7000        468
 122.8000        473
 122.9000        513
 123.0000        453
 123.1000        530
 123.2000        489
 123.3000        488
 123.4000        503
 123.5000        536
 123.6000        482
 123.7000        473
 123.8000        491
 123.9000        458
 124.0000        476
 124.1000        479
 124.2000        451
 124.3000        416
 124.4000        428
 124.5000        379
 124.6000        403
 124.7000        381
 124.8000        392
 124.9000        391
 125.0000        408
 125.1000        413
 125.2000        338
 125.3000        358
 125.4000        414
 125.5000        347
 125.6000        344
 125.7000        396
 125.8000        375
 125.9000        371
 126.0000        370
 126.1000        325
 126.2000        344
 126.3000        356
 126.4000        403
 126.5000        347
 126.6000        394
 126.7000        354
 126.8000        355
 126.9000        330
 127.0000        366
 127.1000        385
 127.2000        379
 127.3000        411
 127.4000        390
 127.5000        376
 127.6000        367
 127.7000        361
 127.8000        360
 127.9000        342
 128.0000        353
 128.1000        393
 128.2000        353
 128.3000        379
 128.4000        372
 128.5000        338
 128.6000        373
 128.7000        372
 128.8000        388
 128.9000        414
 129.0000        372
 129.1000        374
 129.2000        392
 129.3000        389
 129.4000        408
 129.5000        368
 129.6000        370
 129.7000        378
 129.8000        376
 129.9000        378
 130.0000        400