File: exp_dat/old/exp_2013_11_11/19pct_-10G.uxd
; (content of file C:\DIFFDAT1\GIFT\MDL\Seawoong Lee\20131104_MV8\equal_area_maxkhi080_n8_2th40_130_x-25y00_-10g.raw)
_FILEVERSION = 3
_SAMPLE =
_+SAMPLE =
_SITE = Korea
_USER = Admin
_GONIOMETER_CODE = 20
; Goniometer : D8 theta/2theta, stage : Unknown
_SAMPLE_CHANGER_CODE = 0
_ATTACHMENTS_CODE = 0
_GONIOMETER_RADIUS = 300
_FIXED_DIVSLIT = 1
_FIXED_SAMPLESLIT = 0
_SOLLER_SLITS = 2
_FIXED_DETSLIT = 0.1
_MONOCHROMATOR = 0
; Incident beam monochromator : None
_SOLLER_SLITS_2 = 2
_THIN_FILM = N
_BETA_FILTER = Y
_FIXED_ANTISLIT = 0.6
_ANALYZER_CODE = 0
; Received beam analyzer : None
_DATEMEASURED = "08-Nov-2013 09:03:27"
_WL_UNIT = A
_WL1 = 1.78897
_WL2 = 1.79285
_WL3 = 1.62079
_WLRATIO = 0.5
_ANODE = Co
_V4_INF_CREATOR = XRDWizard
_V4_INF_CREATOR_VERSION = V2.9.0.22
_V4_INF_WIZARD_VERSION = V2.9.0.22
_V4_INF_WIZARD_ADDINS = V2.9.0.22
_V4_INF_WIZARD_DOCTYPE = XRD
_V4_INF_OSUSER = Postech
_V4_INF_USER = Admin
_V4_INF_SITE = Korea

; Data for range 1
_DRIVE = COUPLED
_STEPTIME = 0.2
_STEPSIZE = 0.1
_STEPMODE = C
_START = 40
_THETA = 20
_2THETA = 40
_KHI = 0
_PHI = 0
_X = -25
_Y = 0
_Z = 0
_DETECTOR = 1
; Detector type : Scintillation counter
_HV = 687
_GAIN = 80
_LLD = 0.69
_ULD = 1.866
_DETECTORSLIT = unkn
_AUX1 = 0
_AUX2 = 0
_AUX3 = 0
_TIMESTARTED = 28
_TEMP_RATE = -1
_TEMP_DELAY = -1
_KV = 35
_MA = 40
_RANGE_WL = 1.78897
_3DPLANE = 0
_V4_ADDITIONALDETECTOR = 0
_V4_D8_DIBNUM = 1
_V4_DETECTORNAME = "Detector 1"
_V4_TTLDETECTOR = None
_V4_DETECTORTYPE = 1
_V4_DETECTORFLAGS = 524545
_V4_DETECTORHV = 687
_V4_DETECTORGAIN = 80
_V4_DETECTORLLD1 = 0.69
_V4_DETECTORWW1 = 1.176
_V4_DETECTORLLD2 = 0
_V4_DETECTORWW2 = 0
_V4_DETECTORPS = 0
_V4_DETECTORDT = 0
_V4_DETECTORPILEUPTIME = 0
_V4_COUNTERS_MASK = 1
_V4_DRIVES_MASK = 0
_V4_ENCODERS_MASK = 0
_2THETACOUNTS = 1
; 2THETA  Cnt1_D1
  40.0000        547
  40.1000        535
  40.2000        549
  40.3000        527
  40.4000        520
  40.5000        561
  40.6000        493
  40.7000        516
  40.8000        573
  40.9000        488
  41.0000        511
  41.1000        514
  41.2000        482
  41.3000        550
  41.4000        494
  41.5000        516
  41.6000        497
  41.7000        512
  41.8000        521
  41.9000        546
  42.0000        577
  42.1000        493
  42.2000        549
  42.3000        522
  42.4000        549
  42.5000        541
  42.6000        530
  42.7000        497
  42.8000        553
  42.9000        530
  43.0000        519
  43.1000        499
  43.2000        519
  43.3000        511
  43.4000        537
  43.5000        511
  43.6000        498
  43.7000        523
  43.8000        547
  43.9000        519
  44.0000        514
  44.1000        523
  44.2000        529
  44.3000        547
  44.4000        499
  44.5000        544
  44.6000        541
  44.7000        526
  44.8000        524
  44.9000        542
  45.0000        499
  45.1000        540
  45.2000        506
  45.3000        509
  45.4000        551
  45.5000        532
  45.6000        537
  45.7000        543
  45.8000        517
  45.9000        521
  46.0000        505
  46.1000        515
  46.2000        552
  46.3000        492
  46.4000        517
  46.5000        537
  46.6000        517
  46.7000        522
  46.8000        520
  46.9000        515
  47.0000        553
  47.1000        517
  47.2000        533
  47.3000        559
  47.4000        518
  47.5000        503
  47.6000        469
  47.7000        540
  47.8000        500
  47.9000        513
  48.0000        528
  48.1000        527
  48.2000        527
  48.3000        511
  48.4000        559
  48.5000        461
  48.6000        509
  48.7000        557
  48.8000        531
  48.9000        534
  49.0000        494
  49.1000        528
  49.2000        483
  49.3000        531
  49.4000        550
  49.5000        539
  49.6000        567
  49.7000        486
  49.8000        528
  49.9000        507
  50.0000        555
  50.1000        497
  50.2000        513
  50.3000        519
  50.4000        493
  50.5000        515
  50.6000        536
  50.7000        497
  50.8000        549
  50.9000        526
  51.0000        535
  51.1000        524
  51.2000        567
  51.3000        564
  51.4000        617
  51.5000        600
  51.6000        759
  51.7000        917
  51.8000       1060
  51.9000       1126
  52.0000       1167
  52.1000       1216
  52.2000       1274
  52.3000       1246
  52.4000       1158
  52.5000       1042
  52.6000        835
  52.7000        780
  52.8000        655
  52.9000        552
  53.0000        539
  53.1000        558
  53.2000        505
  53.3000        515
  53.4000        499
  53.5000        529
  53.6000        517
  53.7000        539
  53.8000        513
  53.9000        552
  54.0000        534
  54.1000        527
  54.2000        520
  54.3000        515
  54.4000        504
  54.5000        504
  54.6000        551
  54.7000        531
  54.8000        523
  54.9000        521
  55.0000        496
  55.1000        535
  55.2000        529
  55.3000        529
  55.4000        512
  55.5000        494
  55.6000        503
  55.7000        526
  55.8000        532
  55.9000        510
  56.0000        499
  56.1000        518
  56.2000        527
  56.3000        554
  56.4000        563
  56.5000        509
  56.6000        522
  56.7000        510
  56.8000        540
  56.9000        504
  57.0000        497
  57.1000        523
  57.2000        552
  57.3000        517
  57.4000        526
  57.5000        524
  57.6000        551
  57.7000        518
  57.8000        516
  57.9000        497
  58.0000        488
  58.1000        556
  58.2000        542
  58.3000        507
  58.4000        532
  58.5000        540
  58.6000        495
  58.7000        505
  58.8000        569
  58.9000        494
  59.0000        500
  59.1000        548
  59.2000        542
  59.3000        472
  59.4000        497
  59.5000        527
  59.6000        515
  59.7000        540
  59.8000        523
  59.9000        526
  60.0000        489
  60.1000        553
  60.2000        508
  60.3000        483
  60.4000        525
  60.5000        565
  60.6000        489
  60.7000        504
  60.8000        556
  60.9000        512
  61.0000        531
  61.1000        487
  61.2000        555
  61.3000        502
  61.4000        537
  61.5000        512
  61.6000        543
  61.7000        543
  61.8000        498
  61.9000        557
  62.0000        505
  62.1000        543
  62.2000        494
  62.3000        520
  62.4000        499
  62.5000        532
  62.6000        534
  62.7000        539
  62.8000        569
  62.9000        496
  63.0000        495
  63.1000        506
  63.2000        538
  63.3000        528
  63.4000        504
  63.5000        543
  63.6000        532
  63.7000        477
  63.8000        499
  63.9000        516
  64.0000        539
  64.1000        505
  64.2000        505
  64.3000        526
  64.4000        514
  64.5000        528
  64.6000        478
  64.7000        524
  64.8000        505
  64.9000        526
  65.0000        497
  65.1000        529
  65.2000        511
  65.3000        493
  65.4000        512
  65.5000        534
  65.6000        573
  65.7000        501
  65.8000        530
  65.9000        503
  66.0000        512
  66.1000        510
  66.2000        505
  66.3000        510
  66.4000        499
  66.5000        522
  66.6000        516
  66.7000        516
  66.8000        523
  66.9000        529
  67.0000        560
  67.1000        501
  67.2000        527
  67.3000        492
  67.4000        519
  67.5000        516
  67.6000        533
  67.7000        524
  67.8000        491
  67.9000        535
  68.0000        517
  68.1000        526
  68.2000        545
  68.3000        509
  68.4000        538
  68.5000        546
  68.6000        499
  68.7000        509
  68.8000        501
  68.9000        498
  69.0000        497
  69.1000        538
  69.2000        510
  69.3000        505
  69.4000        541
  69.5000        531
  69.6000        523
  69.7000        533
  69.8000        528
  69.9000        535
  70.0000        525
  70.1000        493
  70.2000        515
  70.3000        532
  70.4000        551
  70.5000        503
  70.6000        532
  70.7000        533
  70.8000        537
  70.9000        486
  71.0000        507
  71.1000        503
  71.2000        503
  71.3000        481
  71.4000        507
  71.5000        531
  71.6000        475
  71.7000        470
  71.8000        533
  71.9000        510
  72.0000        523
  72.1000        504
  72.2000        510
  72.3000        522
  72.4000        488
  72.5000        518
  72.6000        520
  72.7000        485
  72.8000        486
  72.9000        529
  73.0000        542
  73.1000        514
  73.2000        521
  73.3000        489
  73.4000        447
  73.5000        529
  73.6000        506
  73.7000        488
  73.8000        496
  73.9000        515
  74.0000        548
  74.1000        522
  74.2000        507
  74.3000        525
  74.4000        520
  74.5000        485
  74.6000        514
  74.7000        524
  74.8000        507
  74.9000        539
  75.0000        531
  75.1000        554
  75.2000        516
  75.3000        521
  75.4000        564
  75.5000        506
  75.6000        526
  75.7000        573
  75.8000        593
  75.9000        636
  76.0000        669
  76.1000        731
  76.2000        828
  76.3000        960
  76.4000       1048
  76.5000       1128
  76.6000       1196
  76.7000       1271
  76.8000       1294
  76.9000       1268
  77.0000       1167
  77.1000       1182
  77.2000       1037
  77.3000        893
  77.4000        751
  77.5000        660
  77.6000        651
  77.7000        616
  77.8000        569
  77.9000        580
  78.0000        532
  78.1000        586
  78.2000        534
  78.3000        591
  78.4000        554
  78.5000        542
  78.6000        505
  78.7000        514
  78.8000        516
  78.9000        527
  79.0000        510
  79.1000        531
  79.2000        490
  79.3000        532
  79.4000        532
  79.5000        545
  79.6000        537
  79.7000        532
  79.8000        501
  79.9000        560
  80.0000        502
  80.1000        501
  80.2000        522
  80.3000        506
  80.4000        512
  80.5000        527
  80.6000        539
  80.7000        514
  80.8000        526
  80.9000        510
  81.0000        469
  81.1000        501
  81.2000        508
  81.3000        490
  81.4000        521
  81.5000        538
  81.6000        524
  81.7000        514
  81.8000        504
  81.9000        482
  82.0000        507
  82.1000        515
  82.2000        513
  82.3000        508
  82.4000        465
  82.5000        529
  82.6000        532
  82.7000        540
  82.8000        503
  82.9000        538
  83.0000        492
  83.1000        514
  83.2000        532
  83.3000        483
  83.4000        513
  83.5000        497
  83.6000        503
  83.7000        463
  83.8000        502
  83.9000        524
  84.0000        511
  84.1000        536
  84.2000        546
  84.3000        512
  84.4000        559
  84.5000        511
  84.6000        469
  84.7000        516
  84.8000        529
  84.9000        470
  85.0000        497
  85.1000        485
  85.2000        527
  85.3000        492
  85.4000        517
  85.5000        540
  85.6000        538
  85.7000        490
  85.8000        554
  85.9000        482
  86.0000        523
  86.1000        534
  86.2000        516
  86.3000        526
  86.4000        495
  86.5000        517
  86.6000        527
  86.7000        523
  86.8000        499
  86.9000        558
  87.0000        522
  87.1000        532
  87.2000        477
  87.3000        507
  87.4000        501
  87.5000        508
  87.6000        527
  87.7000        505
  87.8000        521
  87.9000        544
  88.0000        512
  88.1000        549
  88.2000        518
  88.3000        500
  88.4000        529
  88.5000        509
  88.6000        523
  88.7000        486
  88.8000        540
  88.9000        535
  89.0000        489
  89.1000        534
  89.2000        522
  89.3000        550
  89.4000        487
  89.5000        532
  89.6000        545
  89.7000        490
  89.8000        477
  89.9000        518
  90.0000        508
  90.1000        503
  90.2000        524
  90.3000        512
  90.4000        512
  90.5000        502
  90.6000        487
  90.7000        526
  90.8000        485
  90.9000        545
  91.0000        489
  91.1000        456
  91.2000        484
  91.3000        530
  91.4000        557
  91.5000        554
  91.6000        528
  91.7000        533
  91.8000        490
  91.9000        525
  92.0000        516
  92.1000        529
  92.2000        535
  92.3000        501
  92.4000        504
  92.5000        506
  92.6000        547
  92.7000        510
  92.8000        501
  92.9000        516
  93.0000        490
  93.1000        535
  93.2000        506
  93.3000        491
  93.4000        521
  93.5000        549
  93.6000        534
  93.7000        561
  93.8000        480
  93.9000        504
  94.0000        512
  94.1000        472
  94.2000        509
  94.3000        501
  94.4000        538
  94.5000        516
  94.6000        515
  94.7000        511
  94.8000        439
  94.9000        510
  95.0000        487
  95.1000        488
  95.2000        541
  95.3000        505
  95.4000        505
  95.5000        483
  95.6000        541
  95.7000        573
  95.8000        528
  95.9000        453
  96.0000        528
  96.1000        511
  96.2000        553
  96.3000        528
  96.4000        503
  96.5000        491
  96.6000        505
  96.7000        510
  96.8000        525
  96.9000        521
  97.0000        537
  97.1000        530
  97.2000        515
  97.3000        512
  97.4000        477
  97.5000        581
  97.6000        544
  97.7000        518
  97.8000        562
  97.9000        560
  98.0000        567
  98.1000        598
  98.2000        611
  98.3000        662
  98.4000        714
  98.5000        833
  98.6000        871
  98.7000       1031
  98.8000       1217
  98.9000       1359
  99.0000       1486
  99.1000       1600
  99.2000       1604
  99.3000       1606
  99.4000       1543
  99.5000       1568
  99.6000       1314
  99.7000       1181
  99.8000       1037
  99.9000        898
 100.0000        806
 100.1000        711
 100.2000        658
 100.3000        616
 100.4000        602
 100.5000        591
 100.6000        584
 100.7000        546
 100.8000        527
 100.9000        556
 101.0000        563
 101.1000        535
 101.2000        524
 101.3000        538
 101.4000        575
 101.5000        506
 101.6000        513
 101.7000        560
 101.8000        481
 101.9000        534
 102.0000        533
 102.1000        514
 102.2000        539
 102.3000        539
 102.4000        527
 102.5000        504
 102.6000        550
 102.7000        478
 102.8000        521
 102.9000        559
 103.0000        498
 103.1000        506
 103.2000        522
 103.3000        488
 103.4000        519
 103.5000        478
 103.6000        527
 103.7000        527
 103.8000        513
 103.9000        542
 104.0000        543
 104.1000        509
 104.2000        489
 104.3000        563
 104.4000        489
 104.5000        530
 104.6000        494
 104.7000        490
 104.8000        531
 104.9000        528
 105.0000        528
 105.1000        519
 105.2000        487
 105.3000        536
 105.4000        485
 105.5000        499
 105.6000        507
 105.7000        554
 105.8000        501
 105.9000        526
 106.0000        531
 106.1000        506
 106.2000        519
 106.3000        493
 106.4000        504
 106.5000        526
 106.6000        509
 106.7000        522
 106.8000        560
 106.9000        487
 107.0000        531
 107.1000        491
 107.2000        516
 107.3000        532
 107.4000        536
 107.5000        502
 107.6000        542
 107.7000        529
 107.8000        524
 107.9000        500
 108.0000        493
 108.1000        520
 108.2000        503
 108.3000        527
 108.4000        474
 108.5000        532
 108.6000        457
 108.7000        553
 108.8000        534
 108.9000        513
 109.0000        531
 109.1000        510
 109.2000        478
 109.3000        537
 109.4000        555
 109.5000        508
 109.6000        530
 109.7000        491
 109.8000        554
 109.9000        506
 110.0000        527
 110.1000        487
 110.2000        545
 110.3000        510
 110.4000        518
 110.5000        506
 110.6000        481
 110.7000        537
 110.8000        493
 110.9000        516
 111.0000        540
 111.1000        542
 111.2000        509
 111.3000        483
 111.4000        503
 111.5000        501
 111.6000        540
 111.7000        485
 111.8000        525
 111.9000        506
 112.0000        522
 112.1000        487
 112.2000        535
 112.3000        510
 112.4000        510
 112.5000        513
 112.6000        519
 112.7000        548
 112.8000        506
 112.9000        518
 113.0000        470
 113.1000        499
 113.2000        500
 113.3000        504
 113.4000        478
 113.5000        501
 113.6000        493
 113.7000        514
 113.8000        539
 113.9000        518
 114.0000        515
 114.1000        474
 114.2000        490
 114.3000        539
 114.4000        486
 114.5000        509
 114.6000        517
 114.7000        478
 114.8000        496
 114.9000        516
 115.0000        496
 115.1000        554
 115.2000        472
 115.3000        489
 115.4000        514
 115.5000        484
 115.6000        452
 115.7000        527
 115.8000        505
 115.9000        505
 116.0000        537
 116.1000        467
 116.2000        500
 116.3000        545
 116.4000        514
 116.5000        514
 116.6000        507
 116.7000        497
 116.8000        525
 116.9000        524
 117.0000        510
 117.1000        498
 117.2000        501
 117.3000        508
 117.4000        549
 117.5000        484
 117.6000        489
 117.7000        518
 117.8000        517
 117.9000        509
 118.0000        484
 118.1000        519
 118.2000        489
 118.3000        552
 118.4000        523
 118.5000        479
 118.6000        505
 118.7000        501
 118.8000        529
 118.9000        475
 119.0000        457
 119.1000        520
 119.2000        500
 119.3000        492
 119.4000        542
 119.5000        502
 119.6000        511
 119.7000        496
 119.8000        553
 119.9000        522
 120.0000        461
 120.1000        512
 120.2000        516
 120.3000        582
 120.4000        510
 120.5000        493
 120.6000        458
 120.7000        504
 120.8000        545
 120.9000        565
 121.0000        535
 121.1000        534
 121.2000        504
 121.3000        512
 121.4000        475
 121.5000        481
 121.6000        514
 121.7000        495
 121.8000        540
 121.9000        508
 122.0000        474
 122.1000        517
 122.2000        533
 122.3000        505
 122.4000        525
 122.5000        499
 122.6000        503
 122.7000        523
 122.8000        499
 122.9000        540
 123.0000        576
 123.1000        506
 123.2000        558
 123.3000        558
 123.4000        536
 123.5000        510
 123.6000        542
 123.7000        556
 123.8000        522
 123.9000        556
 124.0000        575
 124.1000        507
 124.2000        524
 124.3000        517
 124.4000        511
 124.5000        548
 124.6000        539
 124.7000        538
 124.8000        494
 124.9000        529
 125.0000        537
 125.1000        508
 125.2000        507
 125.3000        490
 125.4000        510
 125.5000        481
 125.6000        504
 125.7000        486
 125.8000        545
 125.9000        511
 126.0000        525
 126.1000        529
 126.2000        493
 126.3000        538
 126.4000        562
 126.5000        503
 126.6000        516
 126.7000        501
 126.8000        543
 126.9000        541
 127.0000        510
 127.1000        550
 127.2000        525
 127.3000        523
 127.4000        521
 127.5000        512
 127.6000        496
 127.7000        510
 127.8000        508
 127.9000        479
 128.0000        511
 128.1000        534
 128.2000        477
 128.3000        519
 128.4000        467
 128.5000        523
 128.6000        548
 128.7000        510
 128.8000        531
 128.9000        497
 129.0000        513
 129.1000        532
 129.2000        514
 129.3000        508
 129.4000        508
 129.5000        460
 129.6000        503
 129.7000        525
 129.8000        515
 129.9000        560
 130.0000        497

; Data for range 2
_DRIVE = COUPLED
_STEPTIME = 0.2
_STEPSIZE = 0.1
_STEPMODE = C
_START = 40
_THETA = 20
_2THETA = 40
_KHI = 10.5
_PHI = 60
_X = -25
_Y = 0
_Z = 0
_DETECTOR = 1
; Detector type : Scintillation counter
_HV = 687
_GAIN = 80
_LLD = 0.69
_ULD = 1.866
_DETECTORSLIT = unkn
_AUX1 = 0
_AUX2 = 0
_AUX3 = 0
_TIMESTARTED = 226
_TEMP_RATE = -1
_TEMP_DELAY = -1
_KV = 35
_MA = 40
_RANGE_WL = 1.78897
_3DPLANE = 0
_V4_ADDITIONALDETECTOR = 0
_V4_D8_DIBNUM = 1
_V4_DETECTORNAME = "Detector 1"
_V4_TTLDETECTOR = None
_V4_DETECTORTYPE = 1
_V4_DETECTORFLAGS = 524545
_V4_DETECTORHV = 687
_V4_DETECTORGAIN = 80
_V4_DETECTORLLD1 = 0.69
_V4_DETECTORWW1 = 1.176
_V4_DETECTORLLD2 = 0
_V4_DETECTORWW2 = 0
_V4_DETECTORPS = 0
_V4_DETECTORDT = 0
_V4_DETECTORPILEUPTIME = 0
_V4_COUNTERS_MASK = 1
_V4_DRIVES_MASK = 0
_V4_ENCODERS_MASK = 0
_2THETACOUNTS = 1
; 2THETA  Cnt1_D1
  40.0000        520
  40.1000        493
  40.2000        526
  40.3000        530
  40.4000        539
  40.5000        546
  40.6000        556
  40.7000        497
  40.8000        519
  40.9000        564
  41.0000        517
  41.1000        538
  41.2000        544
  41.3000        535
  41.4000        560
  41.5000        514
  41.6000        533
  41.7000        525
  41.8000        547
  41.9000        518
  42.0000        546
  42.1000        488
  42.2000        537
  42.3000        518
  42.4000        524
  42.5000        549
  42.6000        491
  42.7000        490
  42.8000        554
  42.9000        533
  43.0000        519
  43.1000        511
  43.2000        503
  43.3000        519
  43.4000        542
  43.5000        551
  43.6000        582
  43.7000        541
  43.8000        526
  43.9000        549
  44.0000        541
  44.1000        521
  44.2000        541
  44.3000        477
  44.4000        517
  44.5000        482
  44.6000        509
  44.7000        490
  44.8000        534
  44.9000        528
  45.0000        533
  45.1000        512
  45.2000        547
  45.3000        506
  45.4000        551
  45.5000        521
  45.6000        505
  45.7000        564
  45.8000        545
  45.9000        489
  46.0000        502
  46.1000        509
  46.2000        500
  46.3000        561
  46.4000        524
  46.5000        502
  46.6000        536
  46.7000        509
  46.8000        512
  46.9000        532
  47.0000        503
  47.1000        525
  47.2000        512
  47.3000        514
  47.4000        520
  47.5000        539
  47.6000        521
  47.7000        487
  47.8000        505
  47.9000        538
  48.0000        575
  48.1000        553
  48.2000        526
  48.3000        490
  48.4000        525
  48.5000        501
  48.6000        512
  48.7000        508
  48.8000        476
  48.9000        527
  49.0000        496
  49.1000        510
  49.2000        522
  49.3000        523
  49.4000        474
  49.5000        546
  49.6000        556
  49.7000        493
  49.8000        500
  49.9000        499
  50.0000        513
  50.1000        478
  50.2000        532
  50.3000        542
  50.4000        493
  50.5000        503
  50.6000        491
  50.7000        518
  50.8000        514
  50.9000        556
  51.0000        519
  51.1000        535
  51.2000        511
  51.3000        558
  51.4000        576
  51.5000        719
  51.6000        859
  51.7000       1095
  51.8000       1247
  51.9000       1332
  52.0000       1424
  52.1000       1468
  52.2000       1452
  52.3000       1428
  52.4000       1361
  52.5000       1102
  52.6000        948
  52.7000        750
  52.8000        628
  52.9000        657
  53.0000        576
  53.1000        548
  53.2000        524
  53.3000        517
  53.4000        526
  53.5000        494
  53.6000        531
  53.7000        497
  53.8000        488
  53.9000        546
  54.0000        525
  54.1000        511
  54.2000        518
  54.3000        524
  54.4000        497
  54.5000        552
  54.6000        495
  54.7000        554
  54.8000        524
  54.9000        536
  55.0000        512
  55.1000        510
  55.2000        522
  55.3000        556
  55.4000        469
  55.5000        564
  55.6000        551
  55.7000        469
  55.8000        521
  55.9000        510
  56.0000        511
  56.1000        521
  56.2000        534
  56.3000        540
  56.4000        534
  56.5000        570
  56.6000        538
  56.7000        522
  56.8000        519
  56.9000        494
  57.0000        497
  57.1000        506
  57.2000        484
  57.3000        540
  57.4000        509
  57.5000        504
  57.6000        506
  57.7000        518
  57.8000        510
  57.9000        554
  58.0000        532
  58.1000        535
  58.2000        494
  58.3000        521
  58.4000        496
  58.5000        504
  58.6000        528
  58.7000        518
  58.8000        504
  58.9000        522
  59.0000        529
  59.1000        539
  59.2000        506
  59.3000        508
  59.4000        530
  59.5000        531
  59.6000        498
  59.7000        518
  59.8000        525
  59.9000        589
  60.0000        471
  60.1000        510
  60.2000        522
  60.3000        535
  60.4000        490
  60.5000        493
  60.6000        521
  60.7000        466
  60.8000        534
  60.9000        536
  61.0000        531
  61.1000        481
  61.2000        529
  61.3000        517
  61.4000        487
  61.5000        530
  61.6000        512
  61.7000        477
  61.8000        528
  61.9000        508
  62.0000        487
  62.1000        504
  62.2000        481
  62.3000        491
  62.4000        500
  62.5000        524
  62.6000        530
  62.7000        490
  62.8000        459
  62.9000        486
  63.0000        522
  63.1000        483
  63.2000        526
  63.3000        557
  63.4000        481
  63.5000        481
  63.6000        491
  63.7000        528
  63.8000        536
  63.9000        549
  64.0000        524
  64.1000        560
  64.2000        491
  64.3000        509
  64.4000        465
  64.5000        489
  64.6000        545
  64.7000        475
  64.8000        493
  64.9000        512
  65.0000        538
  65.1000        514
  65.2000        532
  65.3000        538
  65.4000        498
  65.5000        525
  65.6000        529
  65.7000        505
  65.8000        519
  65.9000        500
  66.0000        493
  66.1000        514
  66.2000        493
  66.3000        527
  66.4000        483
  66.5000        484
  66.6000        515
  66.7000        539
  66.8000        500
  66.9000        459
  67.0000        531
  67.1000        542
  67.2000        496
  67.3000        514
  67.4000        533
  67.5000        539
  67.6000        480
  67.7000        509
  67.8000        502
  67.9000        537
  68.0000        505
  68.1000        488
  68.2000        499
  68.3000        512
  68.4000        501
  68.5000        497
  68.6000        536
  68.7000        479
  68.8000        505
  68.9000        489
  69.0000        519
  69.1000        512
  69.2000        550
  69.3000        570
  69.4000        551
  69.5000        521
  69.6000        508
  69.7000        539
  69.8000        494
  69.9000        513
  70.0000        498
  70.1000        492
  70.2000        520
  70.3000        510
  70.4000        563
  70.5000        530
  70.6000        500
  70.7000        514
  70.8000        504
  70.9000        472
  71.0000        473
  71.1000        448
  71.2000        499
  71.3000        463
  71.4000        503
  71.5000        485
  71.6000        475
  71.7000        542
  71.8000        504
  71.9000        470
  72.0000        507
  72.1000        517
  72.2000        513
  72.3000        500
  72.4000        527
  72.5000        514
  72.6000        538
  72.7000        468
  72.8000        521
  72.9000        466
  73.0000        551
  73.1000        556
  73.2000        506
  73.3000        488
  73.4000        503
  73.5000        467
  73.6000        479
  73.7000        461
  73.8000        527
  73.9000        509
  74.0000        538
  74.1000        517
  74.2000        501
  74.3000        530
  74.4000        505
  74.5000        534
  74.6000        509
  74.7000        507
  74.8000        526
  74.9000        472
  75.0000        498
  75.1000        505
  75.2000        468
  75.3000        477
  75.4000        561
  75.5000        505
  75.6000        505
  75.7000        500
  75.8000        526
  75.9000        532
  76.0000        553
  76.1000        585
  76.2000        629
  76.3000        597
  76.4000        683
  76.5000        690
  76.6000        685
  76.7000        736
  76.8000        707
  76.9000        736
  77.0000        761
  77.1000        669
  77.2000        674
  77.3000        682
  77.4000        598
  77.5000        545
  77.6000        577
  77.7000        525
  77.8000        515
  77.9000        539
  78.0000        485
  78.1000        525
  78.2000        508
  78.3000        532
  78.4000        515
  78.5000        477
  78.6000        472
  78.7000        506
  78.8000        470
  78.9000        504
  79.0000        524
  79.1000        527
  79.2000        539
  79.3000        521
  79.4000        525
  79.5000        481
  79.6000        526
  79.7000        473
  79.8000        488
  79.9000        491
  80.0000        515
  80.1000        511
  80.2000        476
  80.3000        507
  80.4000        486
  80.5000        512
  80.6000        488
  80.7000        498
  80.8000        460
  80.9000        495
  81.0000        475
  81.1000        481
  81.2000        532
  81.3000        493
  81.4000        525
  81.5000        506
  81.6000        543
  81.7000        521
  81.8000        479
  81.9000        492
  82.0000        490
  82.1000        517
  82.2000        434
  82.3000        523
  82.4000        494
  82.5000        564
  82.6000        474
  82.7000        530
  82.8000        482
  82.9000        541
  83.0000        529
  83.1000        507
  83.2000        526
  83.3000        490
  83.4000        495
  83.5000        537
  83.6000        552
  83.7000        509
  83.8000        537
  83.9000        462
  84.0000        502
  84.1000        484
  84.2000        531
  84.3000        532
  84.4000        502
  84.5000        507
  84.6000        455
  84.7000        503
  84.8000        503
  84.9000        548
  85.0000        468
  85.1000        510
  85.2000        478
  85.3000        539
  85.4000        506
  85.5000        504
  85.6000        523
  85.7000        513
  85.8000        540
  85.9000        493
  86.0000        466
  86.1000        452
  86.2000        487
  86.3000        475
  86.4000        479
  86.5000        541
  86.6000        515
  86.7000        471
  86.8000        491
  86.9000        514
  87.0000        475
  87.1000        522
  87.2000        507
  87.3000        505
  87.4000        501
  87.5000        514
  87.6000        495
  87.7000        499
  87.8000        501
  87.9000        506
  88.0000        517
  88.1000        493
  88.2000        502
  88.3000        469
  88.4000        545
  88.5000        502
  88.6000        484
  88.7000        512
  88.8000        486
  88.9000        488
  89.0000        529
  89.1000        460
  89.2000        490
  89.3000        539
  89.4000        530
  89.5000        479
  89.6000        451
  89.7000        520
  89.8000        471
  89.9000        510
  90.0000        529
  90.1000        510
  90.2000        496
  90.3000        498
  90.4000        484
  90.5000        526
  90.6000        558
  90.7000        472
  90.8000        537
  90.9000        462
  91.0000        493
  91.1000        485
  91.2000        496
  91.3000        527
  91.4000        500
  91.5000        467
  91.6000        505
  91.7000        507
  91.8000        505
  91.9000        483
  92.0000        476
  92.1000        469
  92.2000        496
  92.3000        497
  92.4000        566
  92.5000        517
  92.6000        487
  92.7000        509
  92.8000        521
  92.9000        529
  93.0000        451
  93.1000        489
  93.2000        504
  93.3000        522
  93.4000        509
  93.5000        513
  93.6000        491
  93.7000        460
  93.8000        555
  93.9000        496
  94.0000        535
  94.1000        506
  94.2000        533
  94.3000        470
  94.4000        515
  94.5000        491
  94.6000        466
  94.7000        465
  94.8000        507
  94.9000        495
  95.0000        501
  95.1000        549
  95.2000        532
  95.3000        507
  95.4000        470
  95.5000        498
  95.6000        502
  95.7000        517
  95.8000        487
  95.9000        515
  96.0000        527
  96.1000        499
  96.2000        517
  96.3000        493
  96.4000        499
  96.5000        508
  96.6000        515
  96.7000        514
  96.8000        526
  96.9000        476
  97.0000        507
  97.1000        544
  97.2000        525
  97.3000        538
  97.4000        538
  97.5000        539
  97.6000        479
  97.7000        534
  97.8000        487
  97.9000        568
  98.0000        560
  98.1000        507
  98.2000        573
  98.3000        536
  98.4000        555
  98.5000        583
  98.6000        686
  98.7000        710
  98.8000        844
  98.9000        878
  99.0000        948
  99.1000        925
  99.2000        971
  99.3000       1033
  99.4000        935
  99.5000        910
  99.6000        902
  99.7000        855
  99.8000        828
  99.9000        695
 100.0000        623
 100.1000        548
 100.2000        587
 100.3000        527
 100.4000        496
 100.5000        557
 100.6000        506
 100.7000        560
 100.8000        536
 100.9000        507
 101.0000        568
 101.1000        573
 101.2000        524
 101.3000        521
 101.4000        510
 101.5000        497
 101.6000        505
 101.7000        539
 101.8000        473
 101.9000        524
 102.0000        512
 102.1000        521
 102.2000        498
 102.3000        524
 102.4000        514
 102.5000        520
 102.6000        538
 102.7000        520
 102.8000        529
 102.9000        514
 103.0000        495
 103.1000        473
 103.2000        463
 103.3000        484
 103.4000        495
 103.5000        499
 103.6000        507
 103.7000        498
 103.8000        509
 103.9000        508
 104.0000        508
 104.1000        503
 104.2000        493
 104.3000        552
 104.4000        487
 104.5000        514
 104.6000        504
 104.7000        486
 104.8000        511
 104.9000        509
 105.0000        498
 105.1000        511
 105.2000        515
 105.3000        506
 105.4000        509
 105.5000        498
 105.6000        522
 105.7000        526
 105.8000        457
 105.9000        533
 106.0000        523
 106.1000        502
 106.2000        502
 106.3000        562
 106.4000        532
 106.5000        521
 106.6000        491
 106.7000        515
 106.8000        491
 106.9000        464
 107.0000        504
 107.1000        520
 107.2000        517
 107.3000        493
 107.4000        575
 107.5000        515
 107.6000        533
 107.7000        518
 107.8000        529
 107.9000        521
 108.0000        505
 108.1000        532
 108.2000        549
 108.3000        457
 108.4000        503
 108.5000        529
 108.6000        507
 108.7000        487
 108.8000        495
 108.9000        526
 109.0000        484
 109.1000        509
 109.2000        515
 109.3000        492
 109.4000        520
 109.5000        543
 109.6000        478
 109.7000        509
 109.8000        491
 109.9000        502
 110.0000        503
 110.1000        504
 110.2000        512
 110.3000        547
 110.4000        509
 110.5000        533
 110.6000        527
 110.7000        489
 110.8000        471
 110.9000        541
 111.0000        508
 111.1000        499
 111.2000        499
 111.3000        480
 111.4000        535
 111.5000        502
 111.6000        488
 111.7000        486
 111.8000        525
 111.9000        494
 112.0000        500
 112.1000        521
 112.2000        489
 112.3000        509
 112.4000        519
 112.5000        526
 112.6000        518
 112.7000        508
 112.8000        559
 112.9000        505
 113.0000        492
 113.1000        503
 113.2000        534
 113.3000        541
 113.4000        509
 113.5000        508
 113.6000        488
 113.7000        512
 113.8000        556
 113.9000        536
 114.0000        483
 114.1000        506
 114.2000        505
 114.3000        501
 114.4000        505
 114.5000        478
 114.6000        495
 114.7000        512
 114.8000        481
 114.9000        508
 115.0000        534
 115.1000        526
 115.2000        499
 115.3000        512
 115.4000        499
 115.5000        507
 115.6000        507
 115.7000        497
 115.8000        494
 115.9000        491
 116.0000        520
 116.1000        469
 116.2000        512
 116.3000        498
 116.4000        484
 116.5000        499
 116.6000        527
 116.7000        535
 116.8000        541
 116.9000        487
 117.0000        508
 117.1000        527
 117.2000        489
 117.3000        514
 117.4000        495
 117.5000        510
 117.6000        478
 117.7000        498
 117.8000        475
 117.9000        478
 118.0000        501
 118.1000        496
 118.2000        495
 118.3000        519
 118.4000        526
 118.5000        516
 118.6000        505
 118.7000        505
 118.8000        501
 118.9000        481
 119.0000        493
 119.1000        509
 119.2000        503
 119.3000        510
 119.4000        491
 119.5000        469
 119.6000        479
 119.7000        528
 119.8000        479
 119.9000        538
 120.0000        502
 120.1000        527
 120.2000        520
 120.3000        463
 120.4000        512
 120.5000        524
 120.6000        527
 120.7000        526
 120.8000        520
 120.9000        483
 121.0000        518
 121.1000        457
 121.2000        538
 121.3000        497
 121.4000        521
 121.5000        528
 121.6000        504
 121.7000        536
 121.8000        529
 121.9000        527
 122.0000        533
 122.1000        497
 122.2000        506
 122.3000        529
 122.4000        568
 122.5000        545
 122.6000        546
 122.7000        529
 122.8000        576
 122.9000        553
 123.0000        539
 123.1000        608
 123.2000        550
 123.3000        623
 123.4000        601
 123.5000        590
 123.6000        545
 123.7000        596
 123.8000        558
 123.9000        514
 124.0000        488
 124.1000        513
 124.2000        548
 124.3000        494
 124.4000        534
 124.5000        557
 124.6000        544
 124.7000        492
 124.8000        534
 124.9000        459
 125.0000        503
 125.1000        535
 125.2000        526
 125.3000        515
 125.4000        455
 125.5000        491
 125.6000        536
 125.7000        517
 125.8000        533
 125.9000        530
 126.0000        510
 126.1000        506
 126.2000        523
 126.3000        503
 126.4000        500
 126.5000        507
 126.6000        467
 126.7000        472
 126.8000        526
 126.9000        516
 127.0000        537
 127.1000        539
 127.2000        524
 127.3000        531
 127.4000        490
 127.5000        456
[...]
 129.1000        404
 129.2000        409
 129.3000        393
 129.4000        402
 129.5000        445
 129.6000        400
 129.7000        404
 129.8000        415
 129.9000        436
 130.0000        418

; Data for range 53
_DRIVE = COUPLED
_STEPTIME = 0.2
_STEPSIZE = 0.1
_STEPMODE = C
_START = 40
_THETA = 20
_2THETA = 40
_KHI = 80
_PHI = 0
_X = -25
_Y = 0
_Z = 0
_DETECTOR = 1
; Detector type : Scintillation counter
_HV = 687
_GAIN = 80
_LLD = 0.69
_ULD = 1.866
_DETECTORSLIT = unkn
_AUX1 = 0
_AUX2 = 0
_AUX3 = 0
_TIMESTARTED = 1.03e+004
_TEMP_RATE = -1
_TEMP_DELAY = -1
_KV = 35
_MA = 40
_RANGE_WL = 1.78897
_3DPLANE = 0
_V4_ADDITIONALDETECTOR = 0
_V4_D8_DIBNUM = 1
_V4_DETECTORNAME = "Detector 1"
_V4_TTLDETECTOR = None
_V4_DETECTORTYPE = 1
_V4_DETECTORFLAGS = 524545
_V4_DETECTORHV = 687
_V4_DETECTORGAIN = 80
_V4_DETECTORLLD1 = 0.69
_V4_DETECTORWW1 = 1.176
_V4_DETECTORLLD2 = 0
_V4_DETECTORWW2 = 0
_V4_DETECTORPS = 0
_V4_DETECTORDT = 0
_V4_DETECTORPILEUPTIME = 0
_V4_COUNTERS_MASK = 1
_V4_DRIVES_MASK = 0
_V4_ENCODERS_MASK = 0
_2THETACOUNTS = 1
; 2THETA  Cnt1_D1
  40.0000        182
  40.1000        175
  40.2000        189
  40.3000        197
  40.4000        202
  40.5000        175
  40.6000        213
  40.7000        192
  40.8000        160
  40.9000        173
  41.0000        196
  41.1000        190
  41.2000        200
  41.3000        188
  41.4000        179
  41.5000        223
  41.6000        206
  41.7000        217
  41.8000        188
  41.9000        192
  42.0000        207
  42.1000        178
  42.2000        213
  42.3000        192
  42.4000        196
  42.5000        212
  42.6000        189
  42.7000        219
  42.8000        255
  42.9000        266
  43.0000        261
  43.1000        298
  43.2000        278
  43.3000        276
  43.4000        289
  43.5000        267
  43.6000        309
  43.7000        300
  43.8000        242
  43.9000        245
  44.0000        262
  44.1000        278
  44.2000        214
  44.3000        209
  44.4000        221
  44.5000        216
  44.6000        230
  44.7000        218
  44.8000        221
  44.9000        191
  45.0000        202
  45.1000        223
  45.2000        213
  45.3000        199
  45.4000        213
  45.5000        202
  45.6000        185
  45.7000        222
  45.8000        204
  45.9000        210
  46.0000        228
  46.1000        204
  46.2000        199
  46.3000        221
  46.4000        220
  46.5000        208
  46.6000        189
  46.7000        212
  46.8000        213
  46.9000        202
  47.0000        187
  47.1000        215
  47.2000        209
  47.3000        207
  47.4000        203
  47.5000        207
  47.6000        211
  47.7000        204
  47.8000        224
  47.9000        217
  48.0000        205
  48.1000        208
  48.2000        211
  48.3000        203
  48.4000        245
  48.5000        215
  48.6000        201
  48.7000        221
  48.8000        208
  48.9000        210
  49.0000        185
  49.1000        189
  49.2000        209
  49.3000        215
  49.4000        234
  49.5000        231
  49.6000        208
  49.7000        208
  49.8000        233
  49.9000        260
  50.0000        247
  50.1000        271
  50.2000        275
  50.3000        303
  50.4000        267
  50.5000        260
  50.6000        275
  50.7000        293
  50.8000        332
  50.9000        321
  51.0000        320
  51.1000        365
  51.2000        380
  51.3000        445
  51.4000        474
  51.5000        612
  51.6000        630
  51.7000        777
  51.8000        798
  51.9000        886
  52.0000        900
  52.1000        960
  52.2000        961
  52.3000        956
  52.4000        928
  52.5000        856
  52.6000        828
  52.7000        779
  52.8000        798
  52.9000        654
  53.0000        569
  53.1000        527
  53.2000        429
  53.3000        392
  53.4000        328
  53.5000        321
  53.6000        288
  53.7000        254
  53.8000        249
  53.9000        239
  54.0000        240
  54.1000        240
  54.2000        231
  54.3000        217
  54.4000        246
  54.5000        210
  54.6000        219
  54.7000        228
  54.8000        252
  54.9000        237
  55.0000        213
  55.1000        247
  55.2000        209
  55.3000        238
  55.4000        247
  55.5000        257
  55.6000        219
  55.7000        241
  55.8000        232
  55.9000        257
  56.0000        252
  56.1000        218
  56.2000        231
  56.3000        219
  56.4000        269
  56.5000        275
  56.6000        249
  56.7000        246
  56.8000        234
  56.9000        271
  57.0000        260
  57.1000        240
  57.2000        238
  57.3000        259
  57.4000        222
  57.5000        249
  57.6000        225
  57.7000        269
  57.8000        246
  57.9000        275
  58.0000        257
  58.1000        245
  58.2000        230
  58.3000        240
  58.4000        244
  58.5000        231
  58.6000        279
  58.7000        267
  58.8000        249
  58.9000        247
  59.0000        240
  59.1000        235
  59.2000        250
  59.3000        228
  59.4000        252
  59.5000        269
  59.6000        256
  59.7000        229
  59.8000        254
  59.9000        236
  60.0000        246
  60.1000        248
  60.2000        254
  60.3000        270
  60.4000        238
  60.5000        261
  60.6000        273
  60.7000        263
  60.8000        258
  60.9000        264
  61.0000        234
  61.1000        238
  61.2000        269
  61.3000        268
  61.4000        271
  61.5000        252
  61.6000        247
  61.7000        233
  61.8000        256
  61.9000        230
  62.0000        263
  62.1000        271
  62.2000        267
  62.3000        275
  62.4000        237
  62.5000        245
  62.6000        251
  62.7000        258
  62.8000        257
  62.9000        260
  63.0000        288
  63.1000        232
  63.2000        244
  63.3000        229
  63.4000        269
  63.5000        273
  63.6000        263
  63.7000        226
  63.8000        281
  63.9000        262
  64.0000        235
  64.1000        258
  64.2000        242
  64.3000        268
  64.4000        258
  64.5000        255
  64.6000        257
  64.7000        285
  64.8000        288
  64.9000        248
  65.0000        301
  65.1000        255
  65.2000        274
  65.3000        280
  65.4000        272
  65.5000        274
  65.6000        262
  65.7000        243
  65.8000        281
  65.9000        252
  66.0000        262
  66.1000        288
  66.2000        272
  66.3000        285
  66.4000        270
  66.5000        299
  66.6000        267
  66.7000        277
  66.8000        296
  66.9000        268
  67.0000        245
  67.1000        257
  67.2000        261
  67.3000        261
  67.4000        262
  67.5000        315
  67.6000        268
  67.7000        256
  67.8000        243
  67.9000        289
  68.0000        286
  68.1000        266
  68.2000        262
  68.3000        236
  68.4000        271
  68.5000        271
  68.6000        276
  68.7000        275
  68.8000        273
  68.9000        285
  69.0000        261
  69.1000        296
  69.2000        259
  69.3000        277
  69.4000        263
  69.5000        292
  69.6000        288
  69.7000        291
  69.8000        266
  69.9000        270
  70.0000        297
  70.1000        304
  70.2000        308
  70.3000        282
  70.4000        291
  70.5000        270
  70.6000        300
  70.7000        307
  70.8000        264
  70.9000        295
  71.0000        326
  71.1000        288
  71.2000        297
  71.3000        280
  71.4000        279
  71.5000        310
  71.6000        282
  71.7000        279
  71.8000        282
  71.9000        279
  72.0000        291
  72.1000        337
  72.2000        302
  72.3000        279
  72.4000        275
  72.5000        275
  72.6000        313
  72.7000        313
  72.8000        281
  72.9000        292
  73.0000        283
  73.1000        316
  73.2000        266
  73.3000        299
  73.4000        277
  73.5000        318
  73.6000        299
  73.7000        273
  73.8000        297
  73.9000        319
  74.0000        294
  74.1000        318
  74.2000        306
  74.3000        307
  74.4000        311
  74.5000        320
  74.6000        299
  74.7000        299
  74.8000        305
  74.9000        342
  75.0000        304
  75.1000        334
  75.2000        328
  75.3000        297
  75.4000        340
  75.5000        302
  75.6000        315
  75.7000        332
  75.8000        334
  75.9000        349
  76.0000        343
  76.1000        363
  76.2000        371
  76.3000        384
  76.4000        356
  76.5000        367
  76.6000        366
  76.7000        370
  76.8000        404
  76.9000        368
  77.0000        409
  77.1000        357
  77.2000        344
  77.3000        335
  77.4000        320
  77.5000        346
  77.6000        322
  77.7000        313
  77.8000        351
  77.9000        326
  78.0000        330
  78.1000        319
  78.2000        314
  78.3000        322
  78.4000        305
  78.5000        310
  78.6000        316
  78.7000        299
  78.8000        311
  78.9000        307
  79.0000        301
  79.1000        301
  79.2000        316
  79.3000        275
  79.4000        278
  79.5000        298
  79.6000        311
  79.7000        311
  79.8000        330
  79.9000        296
  80.0000        284
  80.1000        308
  80.2000        324
  80.3000        347
  80.4000        330
  80.5000        295
  80.6000        337
  80.7000        312
  80.8000        319
  80.9000        322
  81.0000        320
  81.1000        310
  81.2000        305
  81.3000        293
  81.4000        323
  81.5000        341
  81.6000        340
  81.7000        324
  81.8000        297
  81.9000        307
  82.0000        327
  82.1000        324
  82.2000        323
  82.3000        305
  82.4000        347
  82.5000        303
  82.6000        324
  82.7000        309
  82.8000        351
  82.9000        308
  83.0000        317
  83.1000        357
  83.2000        317
  83.3000        348
  83.4000        344
  83.5000        344
  83.6000        293
  83.7000        354
  83.8000        314
  83.9000        319
  84.0000        343
  84.1000        337
  84.2000        301
  84.3000        304
  84.4000        281
  84.5000        351
  84.6000        337
  84.7000        308
  84.8000        356
  84.9000        307
  85.0000        308
  85.1000        335
  85.2000        362
  85.3000        304
  85.4000        327
  85.5000        331
  85.6000        319
  85.7000        347
  85.8000        346
  85.9000        324
  86.0000        341
  86.1000        343
  86.2000        329
  86.3000        341
  86.4000        327
  86.5000        327
  86.6000        340
  86.7000        353
  86.8000        354
  86.9000        347
  87.0000        330
  87.1000        349
  87.2000        322
  87.3000        334
  87.4000        334
  87.5000        367
  87.6000        318
  87.7000        347
  87.8000        346
  87.9000        341
  88.0000        371
  88.1000        350
  88.2000        323
  88.3000        382
  88.4000        343
  88.5000        369
  88.6000        374
  88.7000        352
  88.8000        349
  88.9000        376
  89.0000        348
  89.1000        359
  89.2000        339
  89.3000        343
  89.4000        367
  89.5000        341
  89.6000        327
  89.7000        353
  89.8000        347
  89.9000        375
  90.0000        372
  90.1000        360
  90.2000        344
  90.3000        356
  90.4000        348
  90.5000        343
  90.6000        357
  90.7000        387
  90.8000        349
  90.9000        361
  91.0000        347
  91.1000        353
  91.2000        369
  91.3000        382
  91.4000        342
  91.5000        324
  91.6000        353
  91.7000        372
  91.8000        373
  91.9000        356
  92.0000        367
  92.1000        341
  92.2000        357
  92.3000        362
  92.4000        369
  92.5000        374
  92.6000        345
  92.7000        329
  92.8000        352
  92.9000        329
  93.0000        339
  93.1000        348
  93.2000        333
  93.3000        329
  93.4000        361
  93.5000        353
  93.6000        354
  93.7000        350
  93.8000        338
  93.9000        378
  94.0000        372
  94.1000        361
  94.2000        359
  94.3000        393
  94.4000        341
  94.5000        378
  94.6000        376
  94.7000        341
  94.8000        366
  94.9000        362
  95.0000        355
  95.1000        353
  95.2000        369
  95.3000        333
  95.4000        372
  95.5000        355
  95.6000        393
  95.7000        364
  95.8000        373
  95.9000        351
  96.0000        358
  96.1000        377
  96.2000        384
  96.3000        323
  96.4000        344
  96.5000        408
  96.6000        352
  96.7000        416
  96.8000        377
  96.9000        367
  97.0000        365
  97.1000        403
  97.2000        376
  97.3000        415
  97.4000        411
  97.5000        385
  97.6000        391
  97.7000        404
  97.8000        438
  97.9000        457
  98.0000        495
  98.1000        475
  98.2000        505
  98.3000        514
  98.4000        562
  98.5000        618
  98.6000        606
  98.7000        619
  98.8000        664
  98.9000        660
  99.0000        622
  99.1000        610
  99.2000        605
  99.3000        611
  99.4000        634
  99.5000        605
  99.6000        579
  99.7000        576
  99.8000        539
  99.9000        530
 100.0000        519
 100.1000        496
 100.2000        465
 100.3000        467
 100.4000        443
 100.5000        439
 100.6000        419
 100.7000        419
 100.8000        456
 100.9000        409
 101.0000        454
 101.1000        374
 101.2000        423
 101.3000        422
 101.4000        405
 101.5000        376
 101.6000        413
 101.7000        376
 101.8000        362
 101.9000        420
 102.0000        387
 102.1000        390
 102.2000        404
 102.3000        365
 102.4000        393
 102.5000        413
 102.6000        398
 102.7000        401
 102.8000        427
 102.9000        391
 103.0000        387
 103.1000        369
 103.2000        392
 103.3000        449
 103.4000        406
 103.5000        385
 103.6000        364
 103.7000        389
 103.8000        383
 103.9000        348
 104.0000        394
 104.1000        404
 104.2000        398
 104.3000        396
 104.4000        379
 104.5000        448
 104.6000        379
 104.7000        388
 104.8000        417
 104.9000        390
 105.0000        380
 105.1000        373
 105.2000        393
 105.3000        382
 105.4000        407
 105.5000        388
 105.6000        374
 105.7000        386
 105.8000        389
 105.9000        402
 106.0000        421
 106.1000        394
 106.2000        352
 106.3000        393
 106.4000        403
 106.5000        389
 106.6000        391
 106.7000        419
 106.8000        410
 106.9000        373
 107.0000        417
 107.1000        385
 107.2000        423
 107.3000        412
 107.4000        459
 107.5000        400
 107.6000        378
 107.7000        439
 107.8000        398
 107.9000        377
 108.0000        412
 108.1000        419
 108.2000        428
 108.3000        378
 108.4000        454
 108.5000        417
 108.6000        378
 108.7000        371
 108.8000        407
 108.9000        386
 109.0000        415
 109.1000        445
 109.2000        387
 109.3000        405
 109.4000        401
 109.5000        409
 109.6000        410
 109.7000        416
 109.8000        388
 109.9000        453
 110.0000        442
 110.1000        411
 110.2000        387
 110.3000        433
 110.4000        397
 110.5000        394
 110.6000        447
 110.7000        399
 110.8000        408
 110.9000        398
 111.0000        390
 111.1000        411
 111.2000        437
 111.3000        435
 111.4000        402
 111.5000        395
 111.6000        407
 111.7000        410
 111.8000        419
 111.9000        370
 112.0000        393
 112.1000        408
 112.2000        445
 112.3000        365
 112.4000        408
 112.5000        439
 112.6000        456
 112.7000        407
 112.8000        402
 112.9000        406
 113.0000        394
 113.1000        443
 113.2000        397
 113.3000        410
 113.4000        407
 113.5000        413
 113.6000        406
 113.7000        386
 113.8000        416
 113.9000        414
 114.0000        390
 114.1000        422
 114.2000        407
 114.3000        414
 114.4000        382
 114.5000        394
 114.6000        404
 114.7000        379
 114.8000        406
 114.9000        415
 115.0000        426
 115.1000        401
 115.2000        422
 115.3000        393
 115.4000        410
 115.5000        412
 115.6000        429
 115.7000        427
 115.8000        426
 115.9000        387
 116.0000        422
 116.1000        402
 116.2000        411
 116.3000        392
 116.4000        455
 116.5000        393
 116.6000        435
 116.7000        408
 116.8000        384
 116.9000        409
 117.0000        379
 117.1000        401
 117.2000        403
 117.3000        403
 117.4000        389
 117.5000        443
 117.6000        404
 117.7000        378
 117.8000        414
 117.9000        398
 118.0000        410
 118.1000        428
 118.2000        434
 118.3000        428
 118.4000        413
 118.5000        410
 118.6000        444
 118.7000        404
 118.8000        430
 118.9000        433
 119.0000        375
 119.1000        389
 119.2000        454
 119.3000        404
 119.4000        432
 119.5000        394
 119.6000        425
 119.7000        407
 119.8000        436
 119.9000        423
 120.0000        414
 120.1000        414
 120.2000        420
 120.3000        438
 120.4000        435
 120.5000        431
 120.6000        420
 120.7000        424
 120.8000        387
 120.9000        412
 121.0000        403
 121.1000        432
 121.2000        473
 121.3000        431
 121.4000        407
 121.5000        425
 121.6000        454
 121.7000        450
 121.8000        473
 121.9000        480
 122.0000        438
 122.1000        479
 122.2000        454
 122.3000        490
 122.4000        469
 122.5000        496
 122.6000        536
 122.7000        505
 122.8000        521
 122.9000        559
 123.0000        546
 123.1000        563
 123.2000        590
 123.3000        578
 123.4000        566
 123.5000        523
 123.6000        562
 123.7000        558
 123.8000        527
 123.9000        517
 124.0000        491
 124.1000        476
 124.2000        517
 124.3000        478
 124.4000        478
 124.5000        482
 124.6000        483
 124.7000        410
 124.8000        457
 124.9000        442
 125.0000        470
 125.1000        427
 125.2000        444
 125.3000        441
 125.4000        433
 125.5000        438
 125.6000        445
 125.7000        488
 125.8000        419
 125.9000        394
 126.0000        422
 126.1000        448
 126.2000        421
 126.3000        374
 126.4000        415
 126.5000        410
 126.6000        423
 126.7000        405
 126.8000        378
 126.9000        434
 127.0000        436
 127.1000        423
 127.2000        436
 127.3000        437
 127.4000        434
 127.5000        405
 127.6000        441
 127.7000        397
 127.8000        402
 127.9000        414
 128.0000        439
 128.1000        389
 128.2000        434
 128.3000        396
 128.4000        437
 128.5000        396
 128.6000        417
 128.7000        363
 128.8000        436
 128.9000        446
 129.0000        415
 129.1000        435
 129.2000        451
 129.3000        442
 129.4000        425
 129.5000        411
 129.6000        412
 129.7000        406
 129.8000        452
 129.9000        398
 130.0000        452