File: exp_dat/old/exp_2013_11_11/20pct_-20L.uxd
; (content of file C:\DIFFDAT1\GIFT\MDL\Seawoong Lee\20131104_MV8\equal_area_maxkhi080_n8_2th40_130_x-25y-25_-20L.raw)
_FILEVERSION = 3
_SAMPLE =
_+SAMPLE =
_SITE = Korea
_USER = Admin
_GONIOMETER_CODE = 20
; Goniometer : D8 theta/2theta, stage : Unknown
_SAMPLE_CHANGER_CODE = 0
_ATTACHMENTS_CODE = 0
_GONIOMETER_RADIUS = 300
_FIXED_DIVSLIT = 1
_FIXED_SAMPLESLIT = 0
_SOLLER_SLITS = 2
_FIXED_DETSLIT = 0.1
_MONOCHROMATOR = 0
; Incident beam monochromator : None
_SOLLER_SLITS_2 = 2
_THIN_FILM = N
_BETA_FILTER = Y
_FIXED_ANTISLIT = 0.6
_ANALYZER_CODE = 0
; Received beam analyzer : None
_DATEMEASURED = "07-Nov-2013 06:45:07"
_WL_UNIT = A
_WL1 = 1.78897
_WL2 = 1.79285
_WL3 = 1.62079
_WLRATIO = 0.5
_ANODE = Co
_V4_INF_CREATOR = XRDWizard
_V4_INF_CREATOR_VERSION = V2.9.0.22
_V4_INF_WIZARD_VERSION = V2.9.0.22
_V4_INF_WIZARD_ADDINS = V2.9.0.22
_V4_INF_WIZARD_DOCTYPE = XRD
_V4_INF_OSUSER = Postech
_V4_INF_USER = Admin
_V4_INF_SITE = Korea

; Data for range 1
_DRIVE = COUPLED
_STEPTIME = 0.2
_STEPSIZE = 0.1
_STEPMODE = C
_START = 40
_THETA = 20
_2THETA = 40
_KHI = 0
_PHI = 0
_X = -25
_Y = -25
_Z = 0
_DETECTOR = 1
; Detector type : Scintillation counter
_HV = 687
_GAIN = 80
_LLD = 0.69
_ULD = 1.866
_DETECTORSLIT = unkn
_AUX1 = 0
_AUX2 = 0
_AUX3 = 0
_TIMESTARTED = 29
_TEMP_RATE = -1
_TEMP_DELAY = -1
_KV = 35
_MA = 40
_RANGE_WL = 1.78897
_3DPLANE = 0
_V4_ADDITIONALDETECTOR = 0
_V4_D8_DIBNUM = 1
_V4_DETECTORNAME = "Detector 1"
_V4_TTLDETECTOR = None
_V4_DETECTORTYPE = 1
_V4_DETECTORFLAGS = 524545
_V4_DETECTORHV = 687
_V4_DETECTORGAIN = 80
_V4_DETECTORLLD1 = 0.69
_V4_DETECTORWW1 = 1.176
_V4_DETECTORLLD2 = 0
_V4_DETECTORWW2 = 0
_V4_DETECTORPS = 0
_V4_DETECTORDT = 0
_V4_DETECTORPILEUPTIME = 0
_V4_COUNTERS_MASK = 1
_V4_DRIVES_MASK = 0
_V4_ENCODERS_MASK = 0
_2THETACOUNTS = 1
; 2THETA  Cnt1_D1
  40.0000        499
  40.1000        525
  40.2000        489
  40.3000        554
  40.4000        503
  40.5000        535
  40.6000        497
  40.7000        503
  40.8000        487
  40.9000        546
  41.0000        515
  41.1000        507
  41.2000        504
  41.3000        468
  41.4000        524
  41.5000        492
  41.6000        513
  41.7000        519
  41.8000        483
  41.9000        491
  42.0000        460
  42.1000        547
  42.2000        507
  42.3000        467
  42.4000        514
  42.5000        520
  42.6000        489
  42.7000        501
  42.8000        499
  42.9000        523
  43.0000        514
  43.1000        513
  43.2000        514
  43.3000        505
  43.4000        549
  43.5000        545
  43.6000        505
  43.7000        491
  43.8000        499
  43.9000        491
  44.0000        486
  44.1000        540
  44.2000        524
  44.3000        515
  44.4000        499
  44.5000        526
  44.6000        513
  44.7000        535
  44.8000        505
  44.9000        546
  45.0000        486
  45.1000        482
  45.2000        512
  45.3000        523
  45.4000        540
  45.5000        519
  45.6000        572
  45.7000        512
  45.8000        517
  45.9000        516
  46.0000        490
  46.1000        511
  46.2000        514
  46.3000        537
  46.4000        518
  46.5000        521
  46.6000        491
  46.7000        540
  46.8000        531
  46.9000        534
  47.0000        557
  47.1000        527
  47.2000        530
  47.3000        495
  47.4000        531
  47.5000        557
  47.6000        503
  47.7000        523
  47.8000        511
  47.9000        518
  48.0000        542
  48.1000        507
  48.2000        524
  48.3000        550
  48.4000        523
  48.5000        504
  48.6000        507
  48.7000        503
  48.8000        528
  48.9000        546
  49.0000        521
  49.1000        550
  49.2000        552
  49.3000        548
  49.4000        548
  49.5000        559
  49.6000        519
  49.7000        523
  49.8000        543
  49.9000        509
  50.0000        507
  50.1000        513
  50.2000        495
  50.3000        519
  50.4000        561
  50.5000        536
  50.6000        524
  50.7000        562
  50.8000        567
  50.9000        583
  51.0000        537
  51.1000        598
  51.2000        556
  51.3000        586
  51.4000        637
  51.5000        701
  51.6000        887
  51.7000       1080
  51.8000       1353
  51.9000       1513
  52.0000       1544
  52.1000       1577
  52.2000       1559
  52.3000       1634
  52.4000       1482
  52.5000       1421
  52.6000       1063
  52.7000        802
  52.8000        665
  52.9000        563
  53.0000        619
  53.1000        581
  53.2000        518
  53.3000        471
  53.4000        517
  53.5000        529
  53.6000        564
  53.7000        548
  53.8000        547
  53.9000        511
  54.0000        496
  54.1000        529
  54.2000        544
  54.3000        551
  54.4000        527
  54.5000        483
  54.6000        502
  54.7000        502
  54.8000        506
  54.9000        522
  55.0000        492
  55.1000        514
  55.2000        509
  55.3000        517
  55.4000        562
  55.5000        506
  55.6000        527
  55.7000        497
  55.8000        538
  55.9000        520
  56.0000        521
  56.1000        507
  56.2000        534
  56.3000        517
  56.4000        520
  56.5000        538
  56.6000        559
  56.7000        530
  56.8000        483
  56.9000        535
  57.0000        474
  57.1000        519
  57.2000        558
  57.3000        559
  57.4000        571
  57.5000        537
  57.6000        512
  57.7000        507
  57.8000        461
  57.9000        521
  58.0000        567
  58.1000        544
  58.2000        513
  58.3000        537
  58.4000        529
  58.5000        516
  58.6000        557
  58.7000        544
  58.8000        533
  58.9000        513
  59.0000        523
  59.1000        516
  59.2000        522
  59.3000        544
  59.4000        570
  59.5000        540
  59.6000        530
  59.7000        535
  59.8000        518
  59.9000        522
  60.0000        542
  60.1000        529
  60.2000        514
  60.3000        530
  60.4000        529
  60.5000        531
  60.6000        493
  60.7000        518
  60.8000        505
  60.9000        527
  61.0000        529
  61.1000        495
  61.2000        511
  61.3000        535
  61.4000        559
  61.5000        542
  61.6000        516
  61.7000        508
  61.8000        552
  61.9000        518
  62.0000        542
  62.1000        508
  62.2000        560
  62.3000        499
  62.4000        532
  62.5000        514
  62.6000        557
  62.7000        540
  62.8000        551
  62.9000        558
  63.0000        528
  63.1000        489
  63.2000        500
  63.3000        507
  63.4000        526
  63.5000        493
  63.6000        499
  63.7000        546
  63.8000        534
  63.9000        546
  64.0000        486
  64.1000        515
  64.2000        485
  64.3000        494
  64.4000        557
  64.5000        560
  64.6000        482
  64.7000        495
  64.8000        505
  64.9000        558
  65.0000        522
  65.1000        487
  65.2000        476
  65.3000        525
  65.4000        496
  65.5000        532
  65.6000        514
  65.7000        529
  65.8000        552
  65.9000        514
  66.0000        533
  66.1000        502
  66.2000        522
  66.3000        496
  66.4000        504
  66.5000        497
  66.6000        507
  66.7000        530
  66.8000        515
  66.9000        526
  67.0000        496
  67.1000        510
  67.2000        532
  67.3000        495
  67.4000        522
  67.5000        532
  67.6000        425
  67.7000        555
  67.8000        524
  67.9000        499
  68.0000        464
  68.1000        483
  68.2000        517
  68.3000        553
  68.4000        539
  68.5000        491
  68.6000        507
  68.7000        507
  68.8000        530
  68.9000        488
  69.0000        502
  69.1000        515
  69.2000        526
  69.3000        517
  69.4000        484
  69.5000        492
  69.6000        538
  69.7000        508
  69.8000        521
  69.9000        516
  70.0000        499
  70.1000        490
  70.2000        496
  70.3000        517
  70.4000        511
  70.5000        508
  70.6000        508
  70.7000        526
  70.8000        510
  70.9000        515
  71.0000        497
  71.1000        525
  71.2000        509
  71.3000        489
  71.4000        536
  71.5000        497
  71.6000        508
  71.7000        517
  71.8000        537
  71.9000        537
  72.0000        533
  72.1000        530
  72.2000        502
  72.3000        494
  72.4000        493
  72.5000        533
  72.6000        509
  72.7000        529
  72.8000        516
  72.9000        528
  73.0000        552
  73.1000        501
  73.2000        486
  73.3000        535
  73.4000        513
  73.5000        530
  73.6000        491
  73.7000        539
  73.8000        539
  73.9000        550
  74.0000        546
  74.1000        484
  74.2000        532
  74.3000        542
  74.4000        496
  74.5000        549
  74.6000        532
  74.7000        537
  74.8000        478
  74.9000        493
  75.0000        510
  75.1000        473
  75.2000        511
  75.3000        507
  75.4000        543
  75.5000        528
  75.6000        545
  75.7000        509
  75.8000        539
  75.9000        530
  76.0000        588
  76.1000        526
  76.2000        635
  76.3000        707
  76.4000        777
  76.5000        885
  76.6000       1016
  76.7000        991
  76.8000       1066
  76.9000       1058
  77.0000       1082
  77.1000        990
  77.2000        965
  77.3000        871
  77.4000        758
  77.5000        605
  77.6000        646
  77.7000        565
  77.8000        575
  77.9000        540
  78.0000        528
  78.1000        521
  78.2000        510
  78.3000        505
  78.4000        525
  78.5000        529
  78.6000        539
  78.7000        490
  78.8000        519
  78.9000        557
  79.0000        512
  79.1000        505
  79.2000        541
  79.3000        521
  79.4000        508
  79.5000        508
  79.6000        534
  79.7000        545
  79.8000        497
  79.9000        494
  80.0000        538
  80.1000        519
  80.2000        495
  80.3000        509
  80.4000        463
  80.5000        537
  80.6000        517
  80.7000        512
  80.8000        565
  80.9000        497
  81.0000        549
  81.1000        501
  81.2000        509
  81.3000        529
  81.4000        523
  81.5000        505
  81.6000        489
  81.7000        511
  81.8000        483
  81.9000        516
  82.0000        489
  82.1000        550
  82.2000        559
  82.3000        517
  82.4000        525
  82.5000        476
  82.6000        536
  82.7000        536
  82.8000        515
  82.9000        482
  83.0000        568
  83.1000        538
  83.2000        510
  83.3000        538
  83.4000        521
  83.5000        522
  83.6000        504
  83.7000        547
  83.8000        541
  83.9000        513
  84.0000        533
  84.1000        475
  84.2000        544
  84.3000        510
  84.4000        503
  84.5000        529
  84.6000        522
  84.7000        537
  84.8000        505
  84.9000        497
  85.0000        525
  85.1000        490
  85.2000        497
  85.3000        509
  85.4000        534
  85.5000        497
  85.6000        555
  85.7000        477
  85.8000        489
  85.9000        507
  86.0000        511
  86.1000        500
  86.2000        507
  86.3000        540
  86.4000        519
  86.5000        512
  86.6000        526
  86.7000        529
  86.8000        582
  86.9000        526
  87.0000        543
  87.1000        525
  87.2000        497
  87.3000        502
  87.4000        510
  87.5000        507
  87.6000        513
  87.7000        539
  87.8000        496
  87.9000        493
  88.0000        521
  88.1000        558
  88.2000        583
  88.3000        488
  88.4000        500
  88.5000        529
  88.6000        468
  88.7000        520
  88.8000        529
  88.9000        499
  89.0000        493
  89.1000        568
  89.2000        540
  89.3000        552
  89.4000        578
  89.5000        515
  89.6000        547
  89.7000        517
  89.8000        574
  89.9000        498
  90.0000        551
  90.1000        549
  90.2000        509
  90.3000        566
  90.4000        508
  90.5000        529
  90.6000        526
  90.7000        550
  90.8000        532
  90.9000        522
  91.0000        518
  91.1000        520
  91.2000        527
  91.3000        514
  91.4000        491
  91.5000        521
  91.6000        533
  91.7000        526
  91.8000        500
  91.9000        514
  92.0000        556
  92.1000        499
  92.2000        505
  92.3000        540
  92.4000        517
  92.5000        498
  92.6000        501
  92.7000        515
  92.8000        511
  92.9000        491
  93.0000        524
  93.1000        549
  93.2000        573
  93.3000        535
  93.4000        524
  93.5000        490
  93.6000        510
  93.7000        525
  93.8000        517
  93.9000        494
  94.0000        509
  94.1000        544
  94.2000        516
  94.3000        538
  94.4000        549
  94.5000        518
  94.6000        542
  94.7000        486
  94.8000        518
  94.9000        506
  95.0000        603
  95.1000        536
  95.2000        463
  95.3000        515
  95.4000        569
  95.5000        563
  95.6000        536
  95.7000        511
  95.8000        508
  95.9000        497
  96.0000        562
  96.1000        544
  96.2000        553
  96.3000        515
  96.4000        547
  96.5000        514
  96.6000        508
  96.7000        515
  96.8000        511
  96.9000        513
  97.0000        532
  97.1000        540
  97.2000        559
  97.3000        506
  97.4000        548
  97.5000        526
  97.6000        525
  97.7000        571
  97.8000        560
  97.9000        554
  98.0000        569
  98.1000        550
  98.2000        589
  98.3000        599
  98.4000        640
  98.5000        628
  98.6000        701
  98.7000        755
  98.8000       1001
  98.9000       1083
  99.0000       1257
  99.1000       1401
  99.2000       1432
  99.3000       1515
  99.4000       1491
  99.5000       1435
  99.6000       1301
  99.7000       1163
  99.8000       1011
  99.9000        925
 100.0000        732
 100.1000        698
 100.2000        595
 100.3000        611
 100.4000        563
 100.5000        565
 100.6000        549
 100.7000        590
 100.8000        522
 100.9000        555
 101.0000        516
 101.1000        568
 101.2000        554
 101.3000        512
 101.4000        502
 101.5000        538
 101.6000        537
 101.7000        554
 101.8000        536
 101.9000        478
 102.0000        555
 102.1000        502
 102.2000        552
 102.3000        522
 102.4000        549
 102.5000        545
 102.6000        520
 102.7000        569
 102.8000        527
 102.9000        505
 103.0000        524
 103.1000        523
 103.2000        527
 103.3000        561
 103.4000        541
 103.5000        499
 103.6000        526
 103.7000        496
 103.8000        508
 103.9000        532
 104.0000        514
 104.1000        524
 104.2000        545
 104.3000        511
 104.4000        523
 104.5000        515
 104.6000        545
 104.7000        510
 104.8000        508
 104.9000        498
 105.0000        494
 105.1000        477
 105.2000        549
 105.3000        478
 105.4000        497
 105.5000        529
 105.6000        561
 105.7000        511
 105.8000        514
 105.9000        512
 106.0000        524
 106.1000        539
 106.2000        538
 106.3000        541
 106.4000        514
 106.5000        503
 106.6000        514
 106.7000        557
 106.8000        486
 106.9000        491
 107.0000        531
 107.1000        528
 107.2000        490
 107.3000        536
 107.4000        508
 107.5000        491
 107.6000        491
 107.7000        531
 107.8000        538
 107.9000        521
 108.0000        523
 108.1000        496
 108.2000        524
 108.3000        534
 108.4000        529
 108.5000        517
 108.6000        542
 108.7000        541
 108.8000        485
 108.9000        553
 109.0000        501
 109.1000        517
 109.2000        497
 109.3000        535
 109.4000        506
 109.5000        541
 109.6000        541
 109.7000        532
 109.8000        507
 109.9000        507
 110.0000        536
 110.1000        483
 110.2000        486
 110.3000        560
 110.4000        542
 110.5000        553
 110.6000        521
 110.7000        489
 110.8000        506
 110.9000        525
 111.0000        501
 111.1000        508
 111.2000        533
 111.3000        550
 111.4000        487
 111.5000        551
 111.6000        498
 111.7000        504
 111.8000        527
 111.9000        568
 112.0000        519
 112.1000        489
 112.2000        510
 112.3000        541
 112.4000        508
 112.5000        527
 112.6000        510
 112.7000        548
 112.8000        500
 112.9000        514
 113.0000        550
 113.1000        501
 113.2000        524
 113.3000        524
 113.4000        533
 113.5000        529
 113.6000        509
 113.7000        570
 113.8000        487
 113.9000        516
 114.0000        514
 114.1000        516
 114.2000        493
 114.3000        505
 114.4000        512
 114.5000        504
 114.6000        508
 114.7000        539
 114.8000        500
 114.9000        503
 115.0000        565
 115.1000        541
 115.2000        546
 115.3000        518
 115.4000        512
 115.5000        527
 115.6000        542
 115.7000        548
 115.8000        519
 115.9000        523
 116.0000        530
 116.1000        529
 116.2000        511
 116.3000        466
 116.4000        549
 116.5000        548
 116.6000        548
 116.7000        520
 116.8000        546
 116.9000        562
 117.0000        539
 117.1000        507
 117.2000        496
 117.3000        560
 117.4000        561
 117.5000        527
 117.6000        510
 117.7000        530
 117.8000        500
 117.9000        496
 118.0000        518
 118.1000        547
 118.2000        526
 118.3000        506
 118.4000        536
 118.5000        492
 118.6000        522
 118.7000        473
 118.8000        485
 118.9000        509
 119.0000        514
 119.1000        495
 119.2000        528
 119.3000        524
 119.4000        522
 119.5000        533
 119.6000        535
 119.7000        512
 119.8000        524
 119.9000        496
 120.0000        491
 120.1000        508
 120.2000        503
 120.3000        527
 120.4000        518
 120.5000        595
 120.6000        491
 120.7000        490
 120.8000        509
 120.9000        505
 121.0000        543
 121.1000        502
 121.2000        470
 121.3000        515
 121.4000        513
 121.5000        539
 121.6000        496
 121.7000        525
 121.8000        528
 121.9000        516
 122.0000        507
 122.1000        520
 122.2000        503
 122.3000        549
 122.4000        512
 122.5000        493
 122.6000        555
 122.7000        549
 122.8000        559
 122.9000        590
 123.0000        566
 123.1000        630
 123.2000        603
 123.3000        602
 123.4000        638
 123.5000        616
 123.6000        593
 123.7000        621
 123.8000        593
 123.9000        582
 124.0000        561
 124.1000        551
 124.2000        550
 124.3000        531
 124.4000        558
 124.5000        521
 124.6000        529
 124.7000        503
 124.8000        493
 124.9000        560
 125.0000        523
 125.1000        507
 125.2000        527
 125.3000        502
 125.4000        489
 125.5000        489
 125.6000        515
 125.7000        486
 125.8000        519
 125.9000        501
 126.0000        501
 126.1000        521
 126.2000        499
 126.3000        560
 126.4000        503
 126.5000        523
 126.6000        529
 126.7000        551
 126.8000        532
 126.9000        519
 127.0000        542
 127.1000        544
 127.2000        532
 127.3000        492
 127.4000        537
 127.5000        506
 127.6000        539
 127.7000        481
 127.8000        511
 127.9000        518
 128.0000        510
 128.1000        532
 128.2000        543
 128.3000        501
 128.4000        522
 128.5000        491
 128.6000        517
 128.7000        528
 128.8000        572
 128.9000        517
 129.0000        528
 129.1000        526
 129.2000        539
 129.3000        573
 129.4000        494
 129.5000        545
 129.6000        523
 129.7000        501
 129.8000        516
 129.9000        504
 130.0000        520

; Data for range 2
_DRIVE = COUPLED
_STEPTIME = 0.2
_STEPSIZE = 0.1
_STEPMODE = C
_START = 40
_THETA = 20
_2THETA = 40
_KHI = 10.5
_PHI = 60
_X = -25
_Y = -25
_Z = 0
_DETECTOR = 1
; Detector type : Scintillation counter
_HV = 687
_GAIN = 80
_LLD = 0.69
_ULD = 1.866
_DETECTORSLIT = unkn
_AUX1 = 0
_AUX2 = 0
_AUX3 = 0
_TIMESTARTED = 225
_TEMP_RATE = -1
_TEMP_DELAY = -1
_KV = 35
_MA = 40
_RANGE_WL = 1.78897
_3DPLANE = 0
_V4_ADDITIONALDETECTOR = 0
_V4_D8_DIBNUM = 1
_V4_DETECTORNAME = "Detector 1"
_V4_TTLDETECTOR = None
_V4_DETECTORTYPE = 1
_V4_DETECTORFLAGS = 524545
_V4_DETECTORHV = 687
_V4_DETECTORGAIN = 80
_V4_DETECTORLLD1 = 0.69
_V4_DETECTORWW1 = 1.176
_V4_DETECTORLLD2 = 0
_V4_DETECTORWW2 = 0
_V4_DETECTORPS = 0
_V4_DETECTORDT = 0
_V4_DETECTORPILEUPTIME = 0
_V4_COUNTERS_MASK = 1
_V4_DRIVES_MASK = 0
_V4_ENCODERS_MASK = 0
_2THETACOUNTS = 1
; 2THETA  Cnt1_D1
  40.0000        511
  40.1000        505
  40.2000        515
  40.3000        530
  40.4000        536
  40.5000        517
  40.6000        550
  40.7000        534
  40.8000        507
  40.9000        575
  41.0000        550
  41.1000        573
  41.2000        560
  41.3000        516
  41.4000        552
  41.5000        627
  41.6000        530
  41.7000        551
  41.8000        568
  41.9000        499
  42.0000        545
  42.1000        565
  42.2000        536
  42.3000        526
  42.4000        526
  42.5000        544
  42.6000        526
  42.7000        477
  42.8000        587
  42.9000        564
  43.0000        555
  43.1000        512
  43.2000        527
  43.3000        542
  43.4000        528
  43.5000        531
  43.6000        536
  43.7000        530
  43.8000        556
  43.9000        498
  44.0000        537
  44.1000        549
  44.2000        530
  44.3000        535
  44.4000        523
  44.5000        499
  44.6000        526
  44.7000        528
  44.8000        577
  44.9000        580
  45.0000        524
  45.1000        496
  45.2000        544
  45.3000        536
  45.4000        514
  45.5000        555
  45.6000        594
  45.7000        528
  45.8000        592
  45.9000        536
  46.0000        544
  46.1000        552
  46.2000        514
  46.3000        533
  46.4000        547
  46.5000        521
  46.6000        516
  46.7000        543
  46.8000        543
  46.9000        552
  47.0000        539
  47.1000        531
  47.2000        562
  47.3000        536
  47.4000        544
  47.5000        511
  47.6000        562
  47.7000        554
  47.8000        518
  47.9000        557
  48.0000        551
  48.1000        542
  48.2000        572
  48.3000        554
  48.4000        502
  48.5000        526
  48.6000        540
  48.7000        506
  48.8000        527
  48.9000        536
  49.0000        503
  49.1000        541
  49.2000        551
  49.3000        553
  49.4000        551
  49.5000        547
  49.6000        560
  49.7000        510
  49.8000        515
  49.9000        538
  50.0000        534
  50.1000        493
  50.2000        514
  50.3000        549
  50.4000        543
  50.5000        567
  50.6000        595
  50.7000        599
  50.8000        563
  50.9000        598
  51.0000        561
  51.1000        594
  51.2000        598
  51.3000        614
  51.4000        658
  51.5000        734
  51.6000        949
  51.7000       1231
  51.8000       1443
  51.9000       1592
  52.0000       1595
  52.1000       1675
  52.2000       1642
  52.3000       1619
  52.4000       1554
  52.5000       1298
  52.6000       1148
  52.7000        854
  52.8000        683
  52.9000        656
  53.0000        591
  53.1000        533
  53.2000        558
  53.3000        559
  53.4000        567
  53.5000        572
  53.6000        529
  53.7000        546
  53.8000        543
  53.9000        563
  54.0000        541
  54.1000        542
  54.2000        544
  54.3000        556
  54.4000        538
  54.5000        547
  54.6000        516
  54.7000        568
  54.8000        512
  54.9000        502
  55.0000        544
  55.1000        605
  55.2000        555
  55.3000        544
  55.4000        551
  55.5000        541
  55.6000        563
  55.7000        506
  55.8000        562
  55.9000        550
  56.0000        531
  56.1000        539
  56.2000        530
  56.3000        577
  56.4000        515
  56.5000        550
  56.6000        543
  56.7000        549
  56.8000        514
  56.9000        535
  57.0000        527
  57.1000        539
  57.2000        530
  57.3000        534
  57.4000        582
  57.5000        560
  57.6000        564
  57.7000        532
  57.8000        522
  57.9000        496
  58.0000        531
  58.1000        553
  58.2000        523
  58.3000        528
  58.4000        559
  58.5000        551
  58.6000        512
  58.7000        536
  58.8000        557
  58.9000        557
  59.0000        515
  59.1000        571
  59.2000        548
  59.3000        521
  59.4000        544
  59.5000        583
  59.6000        547
  59.7000        534
  59.8000        489
  59.9000        527
  60.0000        566
  60.1000        541
  60.2000        493
  60.3000        540
  60.4000        558
  60.5000        553
  60.6000        569
  60.7000        536
  60.8000        543
  60.9000        547
  61.0000        499
  61.1000        557
  61.2000        543
  61.3000        522
  61.4000        539
  61.5000        528
  61.6000        534
  61.7000        493
  61.8000        479
  61.9000        536
  62.0000        514
  62.1000        520
  62.2000        468
  62.3000        540
  62.4000        534
  62.5000        507
  62.6000        522
  62.7000        534
  62.8000        545
  62.9000        495
  63.0000        532
  63.1000        530
  63.2000        520
  63.3000        512
  63.4000        549
  63.5000        517
  63.6000        499
  63.7000        498
  63.8000        532
  63.9000        563
  64.0000        507
  64.1000        545
  64.2000        515
  64.3000        503
  64.4000        508
  64.5000        550
  64.6000        499
  64.7000        553
  64.8000        527
  64.9000        551
  65.0000        528
  65.1000        506
  65.2000        495
  65.3000        537
  65.4000        514
  65.5000        533
  65.6000        551
  65.7000        516
  65.8000        526
  65.9000        537
  66.0000        572
  66.1000        496
  66.2000        526
  66.3000        592
  66.4000        489
  66.5000        557
  66.6000        529
  66.7000        546
  66.8000        512
  66.9000        505
  67.0000        519
  67.1000        493
  67.2000        571
  67.3000        540
  67.4000        538
  67.5000        529
  67.6000        504
  67.7000        517
  67.8000        527
  67.9000        551
  68.0000        555
  68.1000        544
  68.2000        506
  68.3000        516
  68.4000        534
  68.5000        497
  68.6000        509
  68.7000        511
  68.8000        488
  68.9000        491
  69.0000        455
  69.1000        541
  69.2000        531
  69.3000        508
  69.4000        510
  69.5000        513
  69.6000        515
  69.7000        531
  69.8000        526
  69.9000        523
  70.0000        487
  70.1000        511
  70.2000        505
  70.3000        504
  70.4000        530
  70.5000        483
  70.6000        507
  70.7000        520
  70.8000        494
  70.9000        546
  71.0000        526
  71.1000        556
  71.2000        548
  71.3000        475
  71.4000        515
  71.5000        527
  71.6000        537
  71.7000        539
  71.8000        526
  71.9000        513
  72.0000        520
  72.1000        535
  72.2000        514
  72.3000        542
  72.4000        489
  72.5000        540
  72.6000        509
  72.7000        507
  72.8000        496
  72.9000        530
  73.0000        557
  73.1000        487
  73.2000        531
  73.3000        508
  73.4000        512
  73.5000        518
  73.6000        542
  73.7000        550
  73.8000        503
  73.9000        506
  74.0000        547
  74.1000        496
  74.2000        525
  74.3000        529
  74.4000        540
  74.5000        508
  74.6000        531
  74.7000        531
  74.8000        519
  74.9000        529
  75.0000        502
  75.1000        532
  75.2000        564
  75.3000        512
  75.4000        525
  75.5000        550
  75.6000        526
  75.7000        559
  75.8000        546
  75.9000        494
  76.0000        501
  76.1000        570
  76.2000        561
  76.3000        620
  76.4000        650
  76.5000        703
  76.6000        744
  76.7000        754
  76.8000        754
  76.9000        762
  77.0000        737
  77.1000        737
  77.2000        730
  77.3000        695
  77.4000        592
  77.5000        616
  77.6000        584
  77.7000        554
  77.8000        530
  77.9000        551
  78.0000        517
  78.1000        546
  78.2000        553
  78.3000        535
  78.4000        524
  78.5000        500
  78.6000        543
  78.7000        483
  78.8000        493
  78.9000        550
  79.0000        538
  79.1000        528
  79.2000        508
  79.3000        504
  79.4000        510
  79.5000        511
  79.6000        508
  79.7000        502
  79.8000        525
  79.9000        552
  80.0000        502
  80.1000        494
  80.2000        518
  80.3000        513
  80.4000        506
  80.5000        526
  80.6000        495
  80.7000        538
  80.8000        543
  80.9000        508
  81.0000        543
  81.1000        498
  81.2000        505
  81.3000        528
  81.4000        538
  81.5000        525
  81.6000        538
  81.7000        490
  81.8000        539
  81.9000        510
  82.0000        481
  82.1000        515
  82.2000        502
  82.3000        510
  82.4000        533
  82.5000        488
  82.6000        523
  82.7000        504
  82.8000        529
  82.9000        497
  83.0000        528
  83.1000        502
  83.2000        522
  83.3000        518
  83.4000        551
  83.5000        513
  83.6000        499
  83.7000        514
  83.8000        532
  83.9000        502
  84.0000        532
  84.1000        535
  84.2000        509
  84.3000        487
  84.4000        523
  84.5000        496
  84.6000        511
  84.7000        550
  84.8000        555
  84.9000        506
  85.0000        516
  85.1000        497
  85.2000        470
  85.3000        517
  85.4000        527
  85.5000        509
  85.6000        498
  85.7000        553
  85.8000        539
  85.9000        547
  86.0000        507
  86.1000        506
  86.2000        563
  86.3000        506
  86.4000        524
  86.5000        527
  86.6000        507
  86.7000        528
  86.8000        503
  86.9000        520
  87.0000        508
  87.1000        548
  87.2000        506
  87.3000        456
  87.4000        514
  87.5000        550
  87.6000        524
  87.7000        532
  87.8000        488
  87.9000        567
  88.0000        528
  88.1000        482
  88.2000        547
  88.3000        519
  88.4000        554
  88.5000        547
  88.6000        554
  88.7000        533
  88.8000        534
  88.9000        542
  89.0000        546
  89.1000        530
  89.2000        566
  89.3000        530
  89.4000        536
  89.5000        553
  89.6000        535
  89.7000        539
  89.8000        568
  89.9000        563
  90.0000        525
  90.1000        572
  90.2000        508
  90.3000        501
  90.4000        533
  90.5000        528
  90.6000        503
  90.7000        573
  90.8000        547
  90.9000        515
  91.0000        506
  91.1000        533
  91.2000        516
  91.3000        470
  91.4000        509
  91.5000        506
  91.6000        492
  91.7000        518
  91.8000        526
  91.9000        540
  92.0000        546
  92.1000        495
  92.2000        520
  92.3000        541
  92.4000        512
  92.5000        563
  92.6000        515
  92.7000        517
  92.8000        525
  92.9000        494
  93.0000        532
  93.1000        553
  93.2000        493
  93.3000        483
  93.4000        551
  93.5000        542
  93.6000        481
  93.7000        545
  93.8000        560
  93.9000        512
  94.0000        515
  94.1000        536
  94.2000        520
  94.3000        521
  94.4000        514
  94.5000        502
  94.6000        508
  94.7000        494
  94.8000        495
  94.9000        492
  95.0000        513
  95.1000        533
  95.2000        523
  95.3000        478
  95.4000        539
  95.5000        519
  95.6000        555
  95.7000        533
  95.8000        478
  95.9000        557
  96.0000        552
  96.1000        501
  96.2000        504
  96.3000        494
  96.4000        496
  96.5000        502
  96.6000        512
  96.7000        490
  96.8000        506
  96.9000        532
  97.0000        502
  97.1000        536
  97.2000        537
  97.3000        535
  97.4000        515
  97.5000        561
  97.6000        551
  97.7000        523
  97.8000        548
  97.9000        557
  98.0000        551
  98.1000        540
  98.2000        598
  98.3000        568
  98.4000        606
  98.5000        663
  98.6000        653
  98.7000        673
  98.8000        767
  98.9000        903
  99.0000       1005
  99.1000        986
  99.2000       1053
  99.3000       1019
  99.4000       1058
  99.5000       1043
  99.6000       1008
  99.7000        937
  99.8000        809
  99.9000        727
 100.0000        657
 100.1000        602
 100.2000        545
 100.3000        564
 100.4000        539
 100.5000        525
 100.6000        548
 100.7000        515
 100.8000        519
 100.9000        510
 101.0000        498
 101.1000        529
 101.2000        531
 101.3000        524
 101.4000        499
 101.5000        537
 101.6000        553
 101.7000        559
 101.8000        517
 101.9000        534
 102.0000        527
 102.1000        497
 102.2000        522
 102.3000        525
 102.4000        535
 102.5000        527
 102.6000        518
 102.7000        496
 102.8000        515
 102.9000        559
 103.0000        549
 103.1000        523
 103.2000        550
 103.3000        528
 103.4000        436
 103.5000        516
 103.6000        513
 103.7000        495
 103.8000        520
 103.9000        522
 104.0000        498
 104.1000        546
 104.2000        511
 104.3000        537
 104.4000        520
 104.5000        574
 104.6000        511
 104.7000        543
 104.8000        523
 104.9000        494
 105.0000        506
 105.1000        511
 105.2000        575
 105.3000        551
 105.4000        510
 105.5000        530
 105.6000        510
 105.7000        538
 105.8000        510
 105.9000        529
 106.0000        566
 106.1000        523
 106.2000        502
 106.3000        572
 106.4000        527
 106.5000        512
 106.6000        523
 106.7000        500
 106.8000        491
 106.9000        508
 107.0000        472
 107.1000        521
 107.2000        563
 107.3000        530
 107.4000        515
 107.5000        529
 107.6000        523
 107.7000        542
 107.8000        497
 107.9000        528
 108.0000        498
 108.1000        520
 108.2000        506
 108.3000        485
 108.4000        550
 108.5000        534
 108.6000        487
 108.7000        533
 108.8000        520
 108.9000        534
 109.0000        510
 109.1000        523
 109.2000        541
 109.3000        546
 109.4000        547
 109.5000        547
 109.6000        521
 109.7000        531
 109.8000        540
 109.9000        545
 110.0000        547
 110.1000        526
 110.2000        521
 110.3000        564
 110.4000        512
 110.5000        494
 110.6000        549
 110.7000        560
 110.8000        534
 110.9000        539
 111.0000        548
 111.1000        498
 111.2000        510
 111.3000        550
 111.4000        557
 111.5000        513
 111.6000        504
 111.7000        498
 111.8000        539
 111.9000        555
 112.0000        526
 112.1000        519
 112.2000        507
 112.3000        506
 112.4000        527
 112.5000        493
 112.6000        531
 112.7000        553
 112.8000        510
 112.9000        536
 113.0000        543
 113.1000        517
 113.2000        497
 113.3000        515
 113.4000        502
 113.5000        517
 113.6000        534
 113.7000        536
 113.8000        525
 113.9000        494
 114.0000        566
 114.1000        507
 114.2000        517
 114.3000        527
 114.4000        500
 114.5000        502
 114.6000        512
 114.7000        524
 114.8000        493
 114.9000        485
 115.0000        498
 115.1000        525
 115.2000        515
 115.3000        484
 115.4000        530
 115.5000        491
 115.6000        521
 115.7000        554
 115.8000        497
 115.9000        506
 116.0000        519
 116.1000        493
 116.2000        534
 116.3000        494
 116.4000        508
 116.5000        509
 116.6000        555
 116.7000        529
 116.8000        546
 116.9000        567
 117.0000        521
 117.1000        489
 117.2000        484
 117.3000        502
 117.4000        524
 117.5000        529
 117.6000        501
 117.7000        525
 117.8000        499
 117.9000        520
 118.0000        533
 118.1000        510
 118.2000        520
 118.3000        527
 118.4000        530
 118.5000        517
 118.6000        548
 118.7000        500
 118.8000        544
 118.9000        543
 119.0000        528
 119.1000        532
 119.2000        517
 119.3000        536
 119.4000        508
 119.5000        528
 119.6000        560
 119.7000        561
 119.8000        514
 119.9000        539
 120.0000        467
 120.1000        483
 120.2000        502
 120.3000        536
 120.4000        532
 120.5000        476
 120.6000        528
 120.7000        543
 120.8000        520
 120.9000        516
 121.0000        513
 121.1000        504
 121.2000        504
 121.3000        542
 121.4000        513
 121.5000        521
 121.6000        518
 121.7000        517
 121.8000        541
 121.9000        507
 122.0000        536
 122.1000        531
 122.2000        550
 122.3000        537
 122.4000        526
 122.5000        548
 122.6000        546
 122.7000        538
 122.8000        580
 122.9000        578
 123.0000        598
 123.1000        559
 123.2000        562
 123.3000        643
 123.4000        618
 123.5000        646
 123.6000        632
 123.7000        599
 123.8000        545
 123.9000        559
 124.0000        518
 124.1000        578
 124.2000        488
 124.3000        567
 124.4000        514
 124.5000        523
 124.6000        487
 124.7000        543
 124.8000        468
 124.9000        501
 125.0000        501
 125.1000        529
 125.2000        511
 125.3000        504
 125.4000        493
 125.5000        580
 125.6000        543
 125.7000        555
 125.8000        522
 125.9000        538
 126.0000        484
 126.1000        470
 126.2000        486
 126.3000        522
 126.4000        537
 126.5000        519
 126.6000        519
 126.7000        503
 126.8000        515
 126.9000        507
 127.0000        500
 127.1000        490
 127.2000        514
 127.3000        478
 127.4000        516
 127.5000        506
[...]
 129.2000        344
 129.3000        344
 129.4000        390
 129.5000        371
 129.6000        404
 129.7000        351
 129.8000        391
 129.9000        350
 130.0000        386

; Data for range 53
_DRIVE = COUPLED
_STEPTIME = 0.2
_STEPSIZE = 0.1
_STEPMODE = C
_START = 40
_THETA = 20
_2THETA = 40
_KHI = 80
_PHI = 0
_X = -25
_Y = -25
_Z = 0
_DETECTOR = 1
; Detector type : Scintillation counter
_HV = 687
_GAIN = 80
_LLD = 0.69
_ULD = 1.866
_DETECTORSLIT = unkn
_AUX1 = 0
_AUX2 = 0
_AUX3 = 0
_TIMESTARTED = 1.03e+004
_TEMP_RATE = -1
_TEMP_DELAY = -1
_KV = 35
_MA = 40
_RANGE_WL = 1.78897
_3DPLANE = 0
_V4_ADDITIONALDETECTOR = 0
_V4_D8_DIBNUM = 1
_V4_DETECTORNAME = "Detector 1"
_V4_TTLDETECTOR = None
_V4_DETECTORTYPE = 1
_V4_DETECTORFLAGS = 524545
_V4_DETECTORHV = 687
_V4_DETECTORGAIN = 80
_V4_DETECTORLLD1 = 0.69
_V4_DETECTORWW1 = 1.176
_V4_DETECTORLLD2 = 0
_V4_DETECTORWW2 = 0
_V4_DETECTORPS = 0
_V4_DETECTORDT = 0
_V4_DETECTORPILEUPTIME = 0
_V4_COUNTERS_MASK = 1
_V4_DRIVES_MASK = 0
_V4_ENCODERS_MASK = 0
_2THETACOUNTS = 1
; 2THETA  Cnt1_D1
  40.0000        159
  40.1000        163
  40.2000        161
  40.3000        140
  40.4000        175
  40.5000        148
  40.6000        151
  40.7000        141
  40.8000        138
  40.9000        157
  41.0000        139
  41.1000        159
  41.2000        155
  41.3000        148
  41.4000        153
  41.5000        163
  41.6000        140
  41.7000        151
  41.8000        149
  41.9000        154
  42.0000        160
  42.1000        145
  42.2000        179
  42.3000        147
  42.4000        154
  42.5000        150
  42.6000        170
  42.7000        141
  42.8000        167
  42.9000        139
  43.0000        199
  43.1000        206
  43.2000        175
  43.3000        212
  43.4000        245
  43.5000        248
  43.6000        251
  43.7000        240
  43.8000        244
  43.9000        199
  44.0000        215
  44.1000        231
  44.2000        181
  44.3000        206
  44.4000        181
  44.5000        149
  44.6000        166
  44.7000        151
  44.8000        155
  44.9000        159
  45.0000        167
  45.1000        161
  45.2000        147
  45.3000        163
  45.4000        158
  45.5000        159
  45.6000        154
  45.7000        165
  45.8000        156
  45.9000        182
  46.0000        159
  46.1000        174
  46.2000        183
  46.3000        168
  46.4000        153
  46.5000        195
  46.6000        179
  46.7000        168
  46.8000        147
  46.9000        174
  47.0000        154
  47.1000        162
  47.2000        168
  47.3000        173
  47.4000        169
  47.5000        165
  47.6000        172
  47.7000        166
  47.8000        180
  47.9000        168
  48.0000        142
  48.1000        196
  48.2000        169
  48.3000        142
  48.4000        151
  48.5000        135
  48.6000        176
  48.7000        164
  48.8000        199
  48.9000        163
  49.0000        172
  49.1000        180
  49.2000        168
  49.3000        154
  49.4000        160
  49.5000        162
  49.6000        171
  49.7000        191
  49.8000        191
  49.9000        172
  50.0000        215
  50.1000        198
  50.2000        213
  50.3000        215
  50.4000        238
  50.5000        231
  50.6000        258
  50.7000        240
  50.8000        247
  50.9000        283
  51.0000        290
  51.1000        267
  51.2000        288
  51.3000        331
  51.4000        399
  51.5000        437
  51.6000        507
  51.7000        583
  51.8000        659
  51.9000        743
  52.0000        740
  52.1000        857
  52.2000        847
  52.3000        850
  52.4000        880
  52.5000        842
  52.6000        782
  52.7000        710
  52.8000        653
  52.9000        594
  53.0000        514
  53.1000        448
  53.2000        366
  53.3000        292
  53.4000        256
  53.5000        215
  53.6000        240
  53.7000        254
  53.8000        195
  53.9000        194
  54.0000        169
  54.1000        193
  54.2000        192
  54.3000        220
  54.4000        198
  54.5000        200
  54.6000        186
  54.7000        219
  54.8000        217
  54.9000        182
  55.0000        181
  55.1000        197
  55.2000        216
  55.3000        170
  55.4000        221
  55.5000        188
  55.6000        195
  55.7000        194
  55.8000        186
  55.9000        204
  56.0000        197
  56.1000        177
  56.2000        220
  56.3000        161
  56.4000        200
  56.5000        192
  56.6000        205
  56.7000        215
  56.8000        196
  56.9000        199
  57.0000        212
  57.1000        187
  57.2000        177
  57.3000        200
  57.4000        211
  57.5000        195
  57.6000        200
  57.7000        181
  57.8000        189
  57.9000        199
  58.0000        205
  58.1000        199
  58.2000        200
  58.3000        180
  58.4000        234
  58.5000        205
  58.6000        211
  58.7000        158
  58.8000        197
  58.9000        213
  59.0000        191
  59.1000        179
  59.2000        215
  59.3000        190
  59.4000        198
  59.5000        241
  59.6000        181
  59.7000        212
  59.8000        220
  59.9000        195
  60.0000        236
  60.1000        203
  60.2000        216
  60.3000        242
  60.4000        213
  60.5000        205
  60.6000        197
  60.7000        194
  60.8000        196
  60.9000        195
  61.0000        216
  61.1000        196
  61.2000        202
  61.3000        192
  61.4000        195
  61.5000        209
  61.6000        214
  61.7000        211
  61.8000        213
  61.9000        211
  62.0000        204
  62.1000        200
  62.2000        217
  62.3000        212
  62.4000        180
  62.5000        199
  62.6000        207
  62.7000        210
  62.8000        186
  62.9000        214
  63.0000        221
  63.1000        210
  63.2000        184
  63.3000        228
  63.4000        210
  63.5000        213
  63.6000        177
  63.7000        195
  63.8000        232
  63.9000        224
  64.0000        199
  64.1000        205
  64.2000        195
  64.3000        232
  64.4000        214
  64.5000        195
  64.6000        214
  64.7000        225
  64.8000        222
  64.9000        230
  65.0000        209
  65.1000        229
  65.2000        218
  65.3000        204
  65.4000        209
  65.5000        189
  65.6000        259
  65.7000        222
  65.8000        201
  65.9000        222
  66.0000        205
  66.1000        228
  66.2000        215
  66.3000        232
  66.4000        218
  66.5000        217
  66.6000        233
  66.7000        210
  66.8000        204
  66.9000        227
  67.0000        212
  67.1000        223
  67.2000        220
  67.3000        239
  67.4000        210
  67.5000        202
  67.6000        214
  67.7000        220
  67.8000        239
  67.9000        233
  68.0000        227
  68.1000        211
  68.2000        217
  68.3000        214
  68.4000        200
  68.5000        224
  68.6000        218
  68.7000        239
  68.8000        225
  68.9000        233
  69.0000        215
  69.1000        210
  69.2000        226
  69.3000        202
  69.4000        234
  69.5000        210
  69.6000        228
  69.7000        212
  69.8000        250
  69.9000        220
  70.0000        224
  70.1000        232
  70.2000        228
  70.3000        212
  70.4000        212
  70.5000        231
  70.6000        227
  70.7000        230
  70.8000        256
  70.9000        270
  71.0000        230
  71.1000        224
  71.2000        235
  71.3000        241
  71.4000        242
  71.5000        229
  71.6000        239
  71.7000        231
  71.8000        236
  71.9000        239
  72.0000        239
  72.1000        224
  72.2000        252
  72.3000        207
  72.4000        245
  72.5000        240
  72.6000        243
  72.7000        246
  72.8000        212
  72.9000        228
  73.0000        217
  73.1000        254
  73.2000        236
  73.3000        236
  73.4000        230
  73.5000        259
  73.6000        247
  73.7000        244
  73.8000        230
  73.9000        206
  74.0000        240
  74.1000        218
  74.2000        206
  74.3000        235
  74.4000        230
  74.5000        272
  74.6000        234
  74.7000        247
  74.8000        244
  74.9000        270
  75.0000        235
  75.1000        267
  75.2000        257
  75.3000        249
  75.4000        263
  75.5000        263
  75.6000        249
  75.7000        258
  75.8000        248
  75.9000        271
  76.0000        250
  76.1000        264
  76.2000        296
  76.3000        266
  76.4000        279
  76.5000        278
  76.6000        283
  76.7000        275
  76.8000        292
  76.9000        283
  77.0000        301
  77.1000        302
  77.2000        297
  77.3000        288
  77.4000        294
  77.5000        301
  77.6000        304
  77.7000        296
  77.8000        272
  77.9000        283
  78.0000        250
  78.1000        283
  78.2000        267
  78.3000        213
  78.4000        277
  78.5000        253
  78.6000        257
  78.7000        266
  78.8000        264
  78.9000        284
  79.0000        272
  79.1000        225
  79.2000        278
  79.3000        264
  79.4000        251
  79.5000        250
  79.6000        280
  79.7000        231
  79.8000        253
  79.9000        260
  80.0000        268
  80.1000        245
  80.2000        248
  80.3000        256
  80.4000        235
  80.5000        272
  80.6000        249
  80.7000        252
  80.8000        261
  80.9000        223
  81.0000        268
  81.1000        261
  81.2000        255
  81.3000        289
  81.4000        286
  81.5000        275
  81.6000        270
  81.7000        275
  81.8000        287
  81.9000        264
  82.0000        261
  82.1000        260
  82.2000        254
  82.3000        279
  82.4000        284
  82.5000        283
  82.6000        304
  82.7000        267
  82.8000        267
  82.9000        263
  83.0000        241
  83.1000        282
  83.2000        253
  83.3000        258
  83.4000        242
  83.5000        270
  83.6000        274
  83.7000        268
  83.8000        258
  83.9000        283
  84.0000        249
  84.1000        272
  84.2000        265
  84.3000        261
  84.4000        274
  84.5000        289
  84.6000        249
  84.7000        286
  84.8000        272
  84.9000        281
  85.0000        264
  85.1000        268
  85.2000        288
  85.3000        275
  85.4000        262
  85.5000        301
  85.6000        292
  85.7000        289
  85.8000        266
  85.9000        289
  86.0000        259
  86.1000        309
  86.2000        263
  86.3000        279
  86.4000        312
  86.5000        261
  86.6000        282
  86.7000        289
  86.8000        267
  86.9000        242
  87.0000        278
  87.1000        294
  87.2000        291
  87.3000        275
  87.4000        292
  87.5000        281
  87.6000        302
  87.7000        288
  87.8000        296
  87.9000        262
  88.0000        284
  88.1000        302
  88.2000        285
  88.3000        294
  88.4000        258
  88.5000        298
  88.6000        304
  88.7000        316
  88.8000        306
  88.9000        302
  89.0000        287
  89.1000        287
  89.2000        299
  89.3000        314
  89.4000        274
  89.5000        288
  89.6000        307
  89.7000        292
  89.8000        301
  89.9000        316
  90.0000        293
  90.1000        303
  90.2000        281
  90.3000        275
  90.4000        317
  90.5000        320
  90.6000        319
  90.7000        305
  90.8000        297
  90.9000        289
  91.0000        297
  91.1000        323
  91.2000        292
  91.3000        289
  91.4000        307
  91.5000        308
  91.6000        283
  91.7000        310
  91.8000        289
  91.9000        294
  92.0000        303
  92.1000        302
  92.2000        327
  92.3000        319
  92.4000        301
  92.5000        298
  92.6000        309
  92.7000        291
  92.8000        317
  92.9000        289
  93.0000        312
  93.1000        305
  93.2000        290
  93.3000        360
  93.4000        320
  93.5000        343
  93.6000        322
  93.7000        301
  93.8000        313
  93.9000        308
  94.0000        302
  94.1000        312
  94.2000        293
  94.3000        326
  94.4000        317
  94.5000        287
  94.6000        279
  94.7000        333
  94.8000        321
  94.9000        292
  95.0000        303
  95.1000        309
  95.2000        316
  95.3000        303
  95.4000        296
  95.5000        323
  95.6000        310
  95.7000        314
  95.8000        296
  95.9000        313
  96.0000        297
  96.1000        301
  96.2000        326
  96.3000        330
  96.4000        321
  96.5000        302
  96.6000        303
  96.7000        297
  96.8000        299
  96.9000        343
  97.0000        325
  97.1000        323
  97.2000        350
  97.3000        355
  97.4000        308
  97.5000        331
  97.6000        326
  97.7000        324
  97.8000        333
  97.9000        372
  98.0000        341
  98.1000        374
  98.2000        424
  98.3000        418
  98.4000        394
  98.5000        491
  98.6000        508
  98.7000        505
  98.8000        505
  98.9000        526
  99.0000        583
  99.1000        539
  99.2000        563
  99.3000        538
  99.4000        559
  99.5000        508
  99.6000        495
  99.7000        536
  99.8000        500
  99.9000        467
 100.0000        510
 100.1000        478
 100.2000        412
 100.3000        420
 100.4000        396
 100.5000        391
 100.6000        363
 100.7000        331
 100.8000        348
 100.9000        331
 101.0000        333
 101.1000        351
 101.2000        314
 101.3000        348
 101.4000        359
 101.5000        336
 101.6000        357
 101.7000        343
 101.8000        299
 101.9000        331
 102.0000        308
 102.1000        332
 102.2000        372
 102.3000        352
 102.4000        340
 102.5000        329
 102.6000        357
 102.7000        358
 102.8000        335
 102.9000        342
 103.0000        332
 103.1000        340
 103.2000        341
 103.3000        343
 103.4000        351
 103.5000        353
 103.6000        290
 103.7000        338
 103.8000        336
 103.9000        371
 104.0000        346
 104.1000        357
 104.2000        349
 104.3000        328
 104.4000        338
 104.5000        378
 104.6000        354
 104.7000        347
 104.8000        320
 104.9000        379
 105.0000        350
 105.1000        364
 105.2000        339
 105.3000        348
 105.4000        357
 105.5000        375
 105.6000        334
 105.7000        348
 105.8000        328
 105.9000        306
 106.0000        352
 106.1000        358
 106.2000        357
 106.3000        360
 106.4000        331
 106.5000        344
 106.6000        357
 106.7000        341
 106.8000        328
 106.9000        370
 107.0000        375
 107.1000        346
 107.2000        365
 107.3000        387
 107.4000        335
 107.5000        337
 107.6000        313
 107.7000        338
 107.8000        323
 107.9000        323
 108.0000        346
 108.1000        340
 108.2000        346
 108.3000        364
 108.4000        332
 108.5000        349
 108.6000        354
 108.7000        327
 108.8000        348
 108.9000        369
 109.0000        371
 109.1000        361
 109.2000        361
 109.3000        324
 109.4000        376
 109.5000        385
 109.6000        350
 109.7000        372
 109.8000        352
 109.9000        385
 110.0000        379
 110.1000        333
 110.2000        378
 110.3000        369
 110.4000        378
 110.5000        375
 110.6000        343
 110.7000        386
 110.8000        379
 110.9000        363
 111.0000        363
 111.1000        377
 111.2000        343
 111.3000        392
 111.4000        348
 111.5000        369
 111.6000        335
 111.7000        388
 111.8000        362
 111.9000        363
 112.0000        385
 112.1000        403
 112.2000        356
 112.3000        378
 112.4000        363
 112.5000        348
 112.6000        339
 112.7000        393
 112.8000        364
 112.9000        380
 113.0000        370
 113.1000        411
 113.2000        372
 113.3000        343
 113.4000        358
 113.5000        385
 113.6000        338
 113.7000        383
 113.8000        375
 113.9000        374
 114.0000        328
 114.1000        344
 114.2000        352
 114.3000        389
 114.4000        357
 114.5000        357
 114.6000        356
 114.7000        367
 114.8000        405
 114.9000        368
 115.0000        344
 115.1000        380
 115.2000        360
 115.3000        373
 115.4000        400
 115.5000        370
 115.6000        371
 115.7000        359
 115.8000        399
 115.9000        356
 116.0000        381
 116.1000        391
 116.2000        358
 116.3000        360
 116.4000        389
 116.5000        378
 116.6000        382
 116.7000        425
 116.8000        369
 116.9000        401
 117.0000        393
 117.1000        387
 117.2000        383
 117.3000        386
 117.4000        370
 117.5000        376
 117.6000        426
 117.7000        382
 117.8000        362
 117.9000        398
 118.0000        373
 118.1000        373
 118.2000        413
 118.3000        400
 118.4000        363
 118.5000        414
 118.6000        369
 118.7000        378
 118.8000        409
 118.9000        392
 119.0000        393
 119.1000        378
 119.2000        417
 119.3000        408
 119.4000        367
 119.5000        403
 119.6000        381
 119.7000        383
 119.8000        354
 119.9000        371
 120.0000        375
 120.1000        374
 120.2000        384
 120.3000        375
 120.4000        350
 120.5000        368
 120.6000        394
 120.7000        417
 120.8000        391
 120.9000        351
 121.0000        392
 121.1000        361
 121.2000        412
 121.3000        383
 121.4000        389
 121.5000        415
 121.6000        385
 121.7000        395
 121.8000        418
 121.9000        381
 122.0000        420
 122.1000        409
 122.2000        460
 122.3000        437
 122.4000        453
 122.5000        465
 122.6000        499
 122.7000        500
 122.8000        478
 122.9000        521
 123.0000        529
 123.1000        506
 123.2000        516
 123.3000        495
 123.4000        528
 123.5000        522
 123.6000        451
 123.7000        472
 123.8000        490
 123.9000        445
 124.0000        479
 124.1000        459
 124.2000        460
 124.3000        378
 124.4000        413
 124.5000        401
 124.6000        380
 124.7000        408
 124.8000        389
 124.9000        368
 125.0000        388
 125.1000        398
 125.2000        385
 125.3000        388
 125.4000        384
 125.5000        403
 125.6000        403
 125.7000        412
 125.8000        408
 125.9000        406
 126.0000        394
 126.1000        366
 126.2000        408
 126.3000        364
 126.4000        382
 126.5000        417
 126.6000        393
 126.7000        418
 126.8000        369
 126.9000        363
 127.0000        373
 127.1000        386
 127.2000        336
 127.3000        381
 127.4000        370
 127.5000        368
 127.6000        424
 127.7000        372
 127.8000        419
 127.9000        357
 128.0000        383
 128.1000        368
 128.2000        380
 128.3000        371
 128.4000        391
 128.5000        391
 128.6000        356
 128.7000        371
 128.8000        398
 128.9000        338
 129.0000        371
 129.1000        394
 129.2000        398
 129.3000        360
 129.4000        375
 129.5000        396
 129.6000        359
 129.7000        397
 129.8000        404
 129.9000        353
 130.0000        396