File: exp_dat/old/exp_2013_11_11/21pct_-20G.uxd
; (content of file C:\DIFFDAT1\GIFT\MDL\Seawoong Lee\20131104_MV8\equal_area_maxkhi080_n8_2th40_130_x-25y-25_-20g.raw)
_FILEVERSION = 3
_SAMPLE =
_+SAMPLE =
_SITE = Korea
_USER = Admin
_GONIOMETER_CODE = 20
; Goniometer : D8 theta/2theta, stage : Unknown
_SAMPLE_CHANGER_CODE = 0
_ATTACHMENTS_CODE = 0
_GONIOMETER_RADIUS = 300
_FIXED_DIVSLIT = 1
_FIXED_SAMPLESLIT = 0
_SOLLER_SLITS = 2
_FIXED_DETSLIT = 0.1
_MONOCHROMATOR = 0
; Incident beam monochromator : None
_SOLLER_SLITS_2 = 2
_THIN_FILM = N
_BETA_FILTER = Y
_FIXED_ANTISLIT = 0.6
_ANALYZER_CODE = 0
; Received beam analyzer : None
_DATEMEASURED = "08-Nov-2013 06:08:49"
_WL_UNIT = A
_WL1 = 1.78897
_WL2 = 1.79285
_WL3 = 1.62079
_WLRATIO = 0.5
_ANODE = Co
_V4_INF_CREATOR = XRDWizard
_V4_INF_CREATOR_VERSION = V2.9.0.22
_V4_INF_WIZARD_VERSION = V2.9.0.22
_V4_INF_WIZARD_ADDINS = V2.9.0.22
_V4_INF_WIZARD_DOCTYPE = XRD
_V4_INF_OSUSER = Postech
_V4_INF_USER = Admin
_V4_INF_SITE = Korea

; Data for range 1
_DRIVE = COUPLED
_STEPTIME = 0.2
_STEPSIZE = 0.1
_STEPMODE = C
_START = 40
_THETA = 20
_2THETA = 40
_KHI = 0
_PHI = 0
_X = -25
_Y = -25
_Z = 0
_DETECTOR = 1
; Detector type : Scintillation counter
_HV = 687
_GAIN = 80
_LLD = 0.69
_ULD = 1.866
_DETECTORSLIT = unkn
_AUX1 = 0
_AUX2 = 0
_AUX3 = 0
_TIMESTARTED = 28
_TEMP_RATE = -1
_TEMP_DELAY = -1
_KV = 35
_MA = 40
_RANGE_WL = 1.78897
_3DPLANE = 0
_V4_ADDITIONALDETECTOR = 0
_V4_D8_DIBNUM = 1
_V4_DETECTORNAME = "Detector 1"
_V4_TTLDETECTOR = None
_V4_DETECTORTYPE = 1
_V4_DETECTORFLAGS = 524545
_V4_DETECTORHV = 687
_V4_DETECTORGAIN = 80
_V4_DETECTORLLD1 = 0.69
_V4_DETECTORWW1 = 1.176
_V4_DETECTORLLD2 = 0
_V4_DETECTORWW2 = 0
_V4_DETECTORPS = 0
_V4_DETECTORDT = 0
_V4_DETECTORPILEUPTIME = 0
_V4_COUNTERS_MASK = 1
_V4_DRIVES_MASK = 0
_V4_ENCODERS_MASK = 0
_2THETACOUNTS = 1
; 2THETA  Cnt1_D1
  40.0000        560
  40.1000        518
  40.2000        536
  40.3000        516
  40.4000        523
  40.5000        498
  40.6000        526
  40.7000        547
  40.8000        489
  40.9000        529
  41.0000        533
  41.1000        493
  41.2000        503
  41.3000        548
  41.4000        488
  41.5000        560
  41.6000        540
  41.7000        530
  41.8000        502
  41.9000        531
  42.0000        535
  42.1000        534
  42.2000        544
  42.3000        531
  42.4000        533
  42.5000        496
  42.6000        502
  42.7000        535
  42.8000        509
  42.9000        521
  43.0000        549
  43.1000        524
  43.2000        514
  43.3000        527
  43.4000        524
  43.5000        483
  43.6000        517
  43.7000        525
  43.8000        503
  43.9000        531
  44.0000        521
  44.1000        511
  44.2000        507
  44.3000        505
  44.4000        518
  44.5000        522
  44.6000        533
  44.7000        519
  44.8000        525
  44.9000        519
  45.0000        518
  45.1000        552
  45.2000        524
  45.3000        521
  45.4000        500
  45.5000        544
  45.6000        574
  45.7000        506
  45.8000        507
  45.9000        508
  46.0000        547
  46.1000        524
  46.2000        502
  46.3000        506
  46.4000        550
  46.5000        485
  46.6000        527
  46.7000        532
  46.8000        531
  46.9000        540
  47.0000        482
  47.1000        524
  47.2000        526
  47.3000        505
  47.4000        507
  47.5000        535
  47.6000        528
  47.7000        493
  47.8000        553
  47.9000        492
  48.0000        540
  48.1000        495
  48.2000        495
  48.3000        534
  48.4000        494
  48.5000        523
  48.6000        508
  48.7000        543
  48.8000        538
  48.9000        536
  49.0000        542
  49.1000        511
  49.2000        560
  49.3000        527
  49.4000        509
  49.5000        526
  49.6000        505
  49.7000        514
  49.8000        514
  49.9000        509
  50.0000        556
  50.1000        511
  50.2000        543
  50.3000        492
  50.4000        546
  50.5000        552
  50.6000        574
  50.7000        542
  50.8000        539
  50.9000        549
  51.0000        543
  51.1000        552
  51.2000        585
  51.3000        593
  51.4000        613
  51.5000        652
  51.6000        768
  51.7000        915
  51.8000       1043
  51.9000       1185
  52.0000       1180
  52.1000       1265
  52.2000       1326
  52.3000       1195
  52.4000       1220
  52.5000       1040
  52.6000        926
  52.7000        807
  52.8000        670
  52.9000        629
  53.0000        573
  53.1000        556
  53.2000        521
  53.3000        526
  53.4000        502
  53.5000        578
  53.6000        530
  53.7000        529
  53.8000        536
  53.9000        557
  54.0000        542
  54.1000        533
  54.2000        494
  54.3000        512
  54.4000        501
  54.5000        536
  54.6000        518
  54.7000        534
  54.8000        517
  54.9000        488
  55.0000        553
  55.1000        498
  55.2000        539
  55.3000        522
  55.4000        523
  55.5000        492
  55.6000        516
  55.7000        523
  55.8000        522
  55.9000        532
  56.0000        507
  56.1000        511
  56.2000        517
  56.3000        539
  56.4000        536
  56.5000        551
  56.6000        526
  56.7000        510
  56.8000        514
  56.9000        532
  57.0000        551
  57.1000        497
  57.2000        512
  57.3000        517
  57.4000        501
  57.5000        524
  57.6000        517
  57.7000        561
  57.8000        531
  57.9000        523
  58.0000        559
  58.1000        515
  58.2000        535
  58.3000        546
  58.4000        482
  58.5000        520
  58.6000        522
  58.7000        522
  58.8000        572
  58.9000        510
  59.0000        512
  59.1000        548
  59.2000        532
  59.3000        485
  59.4000        474
  59.5000        517
  59.6000        525
  59.7000        493
  59.8000        549
  59.9000        509
  60.0000        500
  60.1000        530
  60.2000        537
  60.3000        526
  60.4000        522
  60.5000        553
  60.6000        537
  60.7000        532
  60.8000        551
  60.9000        528
  61.0000        534
  61.1000        496
  61.2000        527
  61.3000        520
  61.4000        504
  61.5000        576
  61.6000        492
  61.7000        539
  61.8000        506
  61.9000        510
  62.0000        540
  62.1000        529
  62.2000        514
  62.3000        514
  62.4000        544
  62.5000        473
  62.6000        497
  62.7000        504
  62.8000        489
  62.9000        541
  63.0000        513
  63.1000        533
  63.2000        490
  63.3000        542
  63.4000        531
  63.5000        511
  63.6000        504
  63.7000        520
  63.8000        493
  63.9000        548
  64.0000        536
  64.1000        502
  64.2000        478
  64.3000        492
  64.4000        562
  64.5000        511
  64.6000        542
  64.7000        523
  64.8000        554
  64.9000        484
  65.0000        521
  65.1000        494
  65.2000        501
  65.3000        523
  65.4000        543
  65.5000        545
  65.6000        535
  65.7000        512
  65.8000        509
  65.9000        506
  66.0000        493
  66.1000        492
  66.2000        520
  66.3000        479
  66.4000        483
  66.5000        508
  66.6000        526
  66.7000        517
  66.8000        501
  66.9000        509
  67.0000        507
  67.1000        537
  67.2000        539
  67.3000        524
  67.4000        520
  67.5000        535
  67.6000        491
  67.7000        511
  67.8000        538
  67.9000        544
  68.0000        545
  68.1000        510
  68.2000        532
  68.3000        505
  68.4000        497
  68.5000        516
  68.6000        495
  68.7000        552
  68.8000        539
  68.9000        503
  69.0000        515
  69.1000        518
  69.2000        468
  69.3000        525
  69.4000        501
  69.5000        536
  69.6000        511
  69.7000        543
  69.8000        557
  69.9000        523
  70.0000        498
  70.1000        521
  70.2000        496
  70.3000        499
  70.4000        479
  70.5000        542
  70.6000        517
  70.7000        518
  70.8000        491
  70.9000        482
  71.0000        496
  71.1000        511
  71.2000        494
  71.3000        530
  71.4000        520
  71.5000        525
  71.6000        513
  71.7000        563
  71.8000        500
  71.9000        504
  72.0000        527
  72.1000        554
  72.2000        498
  72.3000        503
  72.4000        514
  72.5000        503
  72.6000        537
  72.7000        491
  72.8000        481
  72.9000        536
  73.0000        510
  73.1000        517
  73.2000        510
  73.3000        507
  73.4000        538
  73.5000        545
  73.6000        518
  73.7000        486
  73.8000        533
  73.9000        518
  74.0000        490
  74.1000        488
  74.2000        474
  74.3000        487
  74.4000        506
  74.5000        533
  74.6000        489
  74.7000        529
  74.8000        541
  74.9000        529
  75.0000        501
  75.1000        560
  75.2000        514
  75.3000        478
  75.4000        512
  75.5000        526
  75.6000        530
  75.7000        522
  75.8000        632
  75.9000        637
  76.0000        665
  76.1000        749
  76.2000        802
  76.3000        980
  76.4000       1073
  76.5000       1178
  76.6000       1232
  76.7000       1295
  76.8000       1329
  76.9000       1327
  77.0000       1241
  77.1000       1151
  77.2000        998
  77.3000        899
  77.4000        774
  77.5000        725
  77.6000        641
  77.7000        606
  77.8000        578
  77.9000        558
  78.0000        548
  78.1000        532
  78.2000        558
  78.3000        531
  78.4000        595
  78.5000        545
  78.6000        544
  78.7000        518
  78.8000        550
  78.9000        528
  79.0000        541
  79.1000        529
  79.2000        511
  79.3000        524
  79.4000        519
  79.5000        492
  79.6000        497
  79.7000        549
  79.8000        512
  79.9000        542
  80.0000        534
  80.1000        481
  80.2000        521
  80.3000        507
  80.4000        536
  80.5000        530
  80.6000        491
  80.7000        495
  80.8000        551
  80.9000        532
  81.0000        550
  81.1000        513
  81.2000        514
  81.3000        530
  81.4000        521
  81.5000        497
  81.6000        500
  81.7000        501
  81.8000        439
  81.9000        536
  82.0000        518
  82.1000        546
  82.2000        529
  82.3000        502
  82.4000        544
  82.5000        509
  82.6000        528
  82.7000        482
  82.8000        498
  82.9000        471
  83.0000        509
  83.1000        505
  83.2000        524
  83.3000        547
  83.4000        501
  83.5000        500
  83.6000        517
  83.7000        517
  83.8000        534
  83.9000        509
  84.0000        495
  84.1000        510
  84.2000        477
  84.3000        523
  84.4000        519
  84.5000        517
  84.6000        484
  84.7000        509
  84.8000        528
  84.9000        457
  85.0000        522
  85.1000        540
  85.2000        503
  85.3000        515
  85.4000        542
  85.5000        463
  85.6000        526
  85.7000        488
  85.8000        494
  85.9000        492
  86.0000        494
  86.1000        509
  86.2000        519
  86.3000        480
  86.4000        492
  86.5000        495
  86.6000        495
  86.7000        517
  86.8000        523
  86.9000        476
  87.0000        502
  87.1000        541
  87.2000        528
  87.3000        558
  87.4000        546
  87.5000        526
  87.6000        537
  87.7000        550
  87.8000        510
  87.9000        512
  88.0000        532
  88.1000        518
  88.2000        516
  88.3000        567
  88.4000        479
  88.5000        475
  88.6000        496
  88.7000        523
  88.8000        465
  88.9000        529
  89.0000        521
  89.1000        509
  89.2000        503
  89.3000        547
  89.4000        528
  89.5000        503
  89.6000        492
  89.7000        492
  89.8000        512
  89.9000        554
  90.0000        535
  90.1000        541
  90.2000        485
  90.3000        472
  90.4000        490
  90.5000        499
  90.6000        471
  90.7000        505
  90.8000        464
  90.9000        490
  91.0000        525
  91.1000        526
  91.2000        480
  91.3000        498
  91.4000        485
  91.5000        533
  91.6000        492
  91.7000        510
  91.8000        520
  91.9000        502
  92.0000        493
  92.1000        520
  92.2000        511
  92.3000        529
  92.4000        512
  92.5000        490
  92.6000        521
  92.7000        516
  92.8000        542
  92.9000        507
  93.0000        501
  93.1000        522
  93.2000        503
  93.3000        511
  93.4000        470
  93.5000        533
  93.6000        515
  93.7000        536
  93.8000        512
  93.9000        534
  94.0000        542
  94.1000        506
  94.2000        473
  94.3000        519
  94.4000        533
  94.5000        490
  94.6000        513
  94.7000        485
  94.8000        493
  94.9000        535
  95.0000        478
  95.1000        555
  95.2000        523
  95.3000        548
  95.4000        499
  95.5000        509
  95.6000        542
  95.7000        526
  95.8000        511
  95.9000        571
  96.0000        517
  96.1000        545
  96.2000        509
  96.3000        516
  96.4000        533
  96.5000        540
  96.6000        513
  96.7000        553
  96.8000        545
  96.9000        510
  97.0000        499
  97.1000        547
  97.2000        526
  97.3000        518
  97.4000        500
  97.5000        495
  97.6000        520
  97.7000        522
  97.8000        559
  97.9000        549
  98.0000        555
  98.1000        627
  98.2000        627
  98.3000        645
  98.4000        651
  98.5000        784
  98.6000        931
  98.7000       1073
  98.8000       1199
  98.9000       1420
  99.0000       1506
  99.1000       1525
  99.2000       1595
  99.3000       1631
  99.4000       1613
  99.5000       1493
  99.6000       1358
  99.7000       1230
  99.8000       1087
  99.9000        897
 100.0000        792
 100.1000        700
 100.2000        661
 100.3000        661
 100.4000        583
 100.5000        572
 100.6000        540
 100.7000        561
 100.8000        548
 100.9000        524
 101.0000        541
 101.1000        546
 101.2000        521
 101.3000        554
 101.4000        533
 101.5000        574
 101.6000        518
 101.7000        507
 101.8000        483
 101.9000        467
 102.0000        542
 102.1000        548
 102.2000        517
 102.3000        516
 102.4000        506
 102.5000        526
 102.6000        526
 102.7000        525
 102.8000        500
 102.9000        513
 103.0000        539
 103.1000        568
 103.2000        512
 103.3000        540
 103.4000        586
 103.5000        505
 103.6000        523
 103.7000        494
 103.8000        509
 103.9000        528
 104.0000        512
 104.1000        491
 104.2000        553
 104.3000        520
 104.4000        531
 104.5000        507
 104.6000        518
 104.7000        521
 104.8000        498
 104.9000        483
 105.0000        475
 105.1000        519
 105.2000        507
 105.3000        483
 105.4000        502
 105.5000        497
 105.6000        507
 105.7000        525
 105.8000        508
 105.9000        514
 106.0000        499
 106.1000        469
 106.2000        506
 106.3000        525
 106.4000        504
 106.5000        581
 106.6000        534
 106.7000        540
 106.8000        502
 106.9000        532
 107.0000        515
 107.1000        525
 107.2000        499
 107.3000        513
 107.4000        511
 107.5000        467
 107.6000        514
 107.7000        509
 107.8000        472
 107.9000        518
 108.0000        517
 108.1000        477
 108.2000        509
 108.3000        538
 108.4000        520
 108.5000        539
 108.6000        522
 108.7000        530
 108.8000        549
 108.9000        532
 109.0000        493
 109.1000        523
 109.2000        527
 109.3000        513
 109.4000        518
 109.5000        516
 109.6000        548
 109.7000        454
 109.8000        488
 109.9000        503
 110.0000        569
 110.1000        522
 110.2000        561
 110.3000        480
 110.4000        471
 110.5000        486
 110.6000        525
 110.7000        509
 110.8000        495
 110.9000        590
 111.0000        528
 111.1000        520
 111.2000        516
 111.3000        512
 111.4000        503
 111.5000        532
 111.6000        552
 111.7000        520
 111.8000        504
 111.9000        549
 112.0000        537
 112.1000        523
 112.2000        522
 112.3000        530
 112.4000        555
 112.5000        476
 112.6000        528
 112.7000        536
 112.8000        496
 112.9000        496
 113.0000        510
 113.1000        489
 113.2000        503
 113.3000        479
 113.4000        523
 113.5000        494
 113.6000        506
 113.7000        500
 113.8000        544
 113.9000        456
 114.0000        543
 114.1000        500
 114.2000        505
 114.3000        519
 114.4000        542
 114.5000        517
 114.6000        506
 114.7000        505
 114.8000        517
 114.9000        490
 115.0000        509
 115.1000        518
 115.2000        526
 115.3000        478
 115.4000        477
 115.5000        488
 115.6000        497
 115.7000        522
 115.8000        527
 115.9000        503
 116.0000        528
 116.1000        490
 116.2000        546
 116.3000        522
 116.4000        495
 116.5000        549
 116.6000        521
 116.7000        554
 116.8000        518
 116.9000        481
 117.0000        501
 117.1000        547
 117.2000        556
 117.3000        521
 117.4000        527
 117.5000        491
 117.6000        492
 117.7000        524
 117.8000        503
 117.9000        529
 118.0000        516
 118.1000        527
 118.2000        467
 118.3000        512
 118.4000        487
 118.5000        523
 118.6000        501
 118.7000        522
 118.8000        521
 118.9000        486
 119.0000        513
 119.1000        546
 119.2000        509
 119.3000        475
 119.4000        526
 119.5000        496
 119.6000        513
 119.7000        515
 119.8000        484
 119.9000        548
 120.0000        522
 120.1000        564
 120.2000        515
 120.3000        516
 120.4000        492
 120.5000        526
 120.6000        489
 120.7000        525
 120.8000        548
 120.9000        476
 121.0000        502
 121.1000        499
 121.2000        468
 121.3000        524
 121.4000        501
 121.5000        501
 121.6000        519
 121.7000        460
 121.8000        464
 121.9000        490
 122.0000        470
 122.1000        554
 122.2000        535
 122.3000        513
 122.4000        514
 122.5000        550
 122.6000        552
 122.7000        525
 122.8000        528
 122.9000        549
 123.0000        537
 123.1000        553
 123.2000        556
 123.3000        593
 123.4000        546
 123.5000        525
 123.6000        565
 123.7000        565
 123.8000        548
 123.9000        557
 124.0000        539
 124.1000        530
 124.2000        487
 124.3000        498
 124.4000        560
 124.5000        523
 124.6000        561
 124.7000        523
 124.8000        519
 124.9000        485
 125.0000        531
 125.1000        471
 125.2000        516
 125.3000        511
 125.4000        529
 125.5000        531
 125.6000        531
 125.7000        556
 125.8000        503
 125.9000        508
 126.0000        508
 126.1000        518
 126.2000        509
 126.3000        525
 126.4000        518
 126.5000        486
 126.6000        527
 126.7000        519
 126.8000        515
 126.9000        502
 127.0000        526
 127.1000        546
 127.2000        517
 127.3000        536
 127.4000        491
 127.5000        514
 127.6000        542
 127.7000        497
 127.8000        497
 127.9000        499
 128.0000        534
 128.1000        535
 128.2000        526
 128.3000        538
 128.4000        513
 128.5000        535
 128.6000        493
 128.7000        513
 128.8000        553
 128.9000        505
 129.0000        518
 129.1000        523
 129.2000        523
 129.3000        517
 129.4000        535
 129.5000        552
 129.6000        480
 129.7000        561
 129.8000        491
 129.9000        515
 130.0000        513

; Data for range 2
_DRIVE = COUPLED
_STEPTIME = 0.2
_STEPSIZE = 0.1
_STEPMODE = C
_START = 40
_THETA = 20
_2THETA = 40
_KHI = 10.5
_PHI = 60
_X = -25
_Y = -25
_Z = 0
_DETECTOR = 1
; Detector type : Scintillation counter
_HV = 687
_GAIN = 80
_LLD = 0.69
_ULD = 1.866
_DETECTORSLIT = unkn
_AUX1 = 0
_AUX2 = 0
_AUX3 = 0
_TIMESTARTED = 226
_TEMP_RATE = -1
_TEMP_DELAY = -1
_KV = 35
_MA = 40
_RANGE_WL = 1.78897
_3DPLANE = 0
_V4_ADDITIONALDETECTOR = 0
_V4_D8_DIBNUM = 1
_V4_DETECTORNAME = "Detector 1"
_V4_TTLDETECTOR = None
_V4_DETECTORTYPE = 1
_V4_DETECTORFLAGS = 524545
_V4_DETECTORHV = 687
_V4_DETECTORGAIN = 80
_V4_DETECTORLLD1 = 0.69
_V4_DETECTORWW1 = 1.176
_V4_DETECTORLLD2 = 0
_V4_DETECTORWW2 = 0
_V4_DETECTORPS = 0
_V4_DETECTORDT = 0
_V4_DETECTORPILEUPTIME = 0
_V4_COUNTERS_MASK = 1
_V4_DRIVES_MASK = 0
_V4_ENCODERS_MASK = 0
_2THETACOUNTS = 1
; 2THETA  Cnt1_D1
  40.0000        534
  40.1000        496
  40.2000        550
  40.3000        534
  40.4000        584
  40.5000        526
  40.6000        508
  40.7000        473
  40.8000        531
  40.9000        541
  41.0000        543
  41.1000        548
  41.2000        523
  41.3000        536
  41.4000        521
  41.5000        531
  41.6000        556
  41.7000        514
  41.8000        527
  41.9000        546
  42.0000        537
  42.1000        572
  42.2000        484
  42.3000        523
  42.4000        531
  42.5000        513
  42.6000        532
  42.7000        536
  42.8000        520
  42.9000        564
  43.0000        524
  43.1000        540
  43.2000        532
  43.3000        531
  43.4000        538
  43.5000        543
  43.6000        495
  43.7000        546
  43.8000        530
  43.9000        511
  44.0000        556
  44.1000        503
  44.2000        541
  44.3000        534
  44.4000        521
  44.5000        534
  44.6000        547
  44.7000        581
  44.8000        535
  44.9000        506
  45.0000        468
  45.1000        491
  45.2000        487
  45.3000        505
  45.4000        505
  45.5000        487
  45.6000        548
  45.7000        523
  45.8000        480
  45.9000        540
  46.0000        509
  46.1000        572
  46.2000        571
  46.3000        569
  46.4000        499
  46.5000        504
  46.6000        535
  46.7000        513
  46.8000        554
  46.9000        502
  47.0000        506
  47.1000        509
  47.2000        516
  47.3000        527
  47.4000        508
  47.5000        536
  47.6000        502
  47.7000        512
  47.8000        502
  47.9000        550
  48.0000        544
  48.1000        531
  48.2000        534
  48.3000        544
  48.4000        525
  48.5000        549
  48.6000        517
  48.7000        516
  48.8000        495
  48.9000        534
  49.0000        600
  49.1000        531
  49.2000        542
  49.3000        521
  49.4000        518
  49.5000        482
  49.6000        503
  49.7000        485
  49.8000        485
  49.9000        516
  50.0000        543
  50.1000        553
  50.2000        530
  50.3000        554
  50.4000        472
  50.5000        545
  50.6000        505
  50.7000        564
  50.8000        539
  50.9000        541
  51.0000        513
  51.1000        544
  51.2000        557
  51.3000        588
  51.4000        647
  51.5000        741
  51.6000        797
  51.7000        977
  51.8000       1123
  51.9000       1235
  52.0000       1363
  52.1000       1312
  52.2000       1351
  52.3000       1279
  52.4000       1238
  52.5000       1149
  52.6000        925
  52.7000        780
  52.8000        650
  52.9000        609
  53.0000        579
  53.1000        529
  53.2000        520
  53.3000        541
  53.4000        536
  53.5000        526
  53.6000        532
  53.7000        555
  53.8000        498
  53.9000        519
  54.0000        592
  54.1000        489
  54.2000        547
  54.3000        546
  54.4000        550
  54.5000        536
  54.6000        541
  54.7000        566
  54.8000        543
  54.9000        573
  55.0000        567
  55.1000        530
  55.2000        539
  55.3000        503
  55.4000        540
  55.5000        538
  55.6000        523
  55.7000        510
  55.8000        512
  55.9000        475
  56.0000        509
  56.1000        515
  56.2000        556
  56.3000        507
  56.4000        523
  56.5000        498
  56.6000        517
  56.7000        513
  56.8000        519
  56.9000        554
  57.0000        577
  57.1000        522
  57.2000        488
  57.3000        502
  57.4000        519
  57.5000        483
  57.6000        509
  57.7000        504
  57.8000        493
  57.9000        518
  58.0000        519
  58.1000        558
  58.2000        503
  58.3000        492
  58.4000        554
  58.5000        527
  58.6000        477
  58.7000        499
  58.8000        526
  58.9000        534
  59.0000        527
  59.1000        506
  59.2000        499
  59.3000        532
  59.4000        528
  59.5000        490
  59.6000        534
  59.7000        478
  59.8000        541
  59.9000        495
  60.0000        504
  60.1000        514
  60.2000        498
  60.3000        532
  60.4000        553
  60.5000        535
  60.6000        487
  60.7000        531
  60.8000        542
  60.9000        526
  61.0000        546
  61.1000        502
  61.2000        497
  61.3000        541
  61.4000        504
  61.5000        514
  61.6000        520
  61.7000        502
  61.8000        498
  61.9000        525
  62.0000        494
  62.1000        509
  62.2000        534
  62.3000        498
  62.4000        519
  62.5000        526
  62.6000        587
  62.7000        514
  62.8000        549
  62.9000        507
  63.0000        513
  63.1000        544
  63.2000        521
  63.3000        525
  63.4000        518
  63.5000        517
  63.6000        514
  63.7000        524
  63.8000        516
  63.9000        523
  64.0000        501
  64.1000        523
  64.2000        509
  64.3000        505
  64.4000        506
  64.5000        522
  64.6000        541
  64.7000        490
  64.8000        520
  64.9000        460
  65.0000        541
  65.1000        522
  65.2000        522
  65.3000        541
  65.4000        472
  65.5000        483
  65.6000        491
  65.7000        506
  65.8000        508
  65.9000        473
  66.0000        510
  66.1000        505
  66.2000        525
  66.3000        484
  66.4000        543
  66.5000        506
  66.6000        517
  66.7000        489
  66.8000        487
  66.9000        530
  67.0000        500
  67.1000        478
  67.2000        510
  67.3000        526
  67.4000        511
  67.5000        523
  67.6000        555
  67.7000        477
  67.8000        540
  67.9000        501
  68.0000        529
  68.1000        500
  68.2000        512
  68.3000        517
  68.4000        496
  68.5000        518
  68.6000        560
  68.7000        485
  68.8000        516
  68.9000        500
  69.0000        501
  69.1000        520
  69.2000        528
  69.3000        479
  69.4000        517
  69.5000        513
  69.6000        529
  69.7000        498
  69.8000        531
  69.9000        553
  70.0000        553
  70.1000        510
  70.2000        501
  70.3000        470
  70.4000        512
  70.5000        507
  70.6000        525
  70.7000        493
  70.8000        519
  70.9000        473
  71.0000        517
  71.1000        500
  71.2000        512
  71.3000        472
  71.4000        556
  71.5000        526
  71.6000        525
  71.7000        509
  71.8000        508
  71.9000        493
  72.0000        547
  72.1000        531
  72.2000        532
  72.3000        501
  72.4000        489
  72.5000        517
  72.6000        499
  72.7000        490
  72.8000        496
  72.9000        519
  73.0000        498
  73.1000        498
  73.2000        536
  73.3000        508
  73.4000        507
  73.5000        447
  73.6000        480
  73.7000        521
  73.8000        533
  73.9000        533
  74.0000        506
  74.1000        492
  74.2000        513
  74.3000        509
  74.4000        490
  74.5000        558
  74.6000        516
  74.7000        501
  74.8000        537
  74.9000        512
  75.0000        494
  75.1000        506
  75.2000        559
  75.3000        521
  75.4000        501
  75.5000        526
  75.6000        515
  75.7000        532
  75.8000        539
  75.9000        484
  76.0000        544
  76.1000        579
  76.2000        637
  76.3000        659
  76.4000        620
  76.5000        742
  76.6000        763
  76.7000        722
  76.8000        825
  76.9000        776
  77.0000        768
  77.1000        730
  77.2000        697
  77.3000        692
  77.4000        650
  77.5000        581
  77.6000        595
  77.7000        592
  77.8000        569
  77.9000        550
  78.0000        535
  78.1000        540
  78.2000        498
  78.3000        510
  78.4000        540
  78.5000        519
  78.6000        510
  78.7000        521
  78.8000        526
  78.9000        501
  79.0000        552
  79.1000        508
  79.2000        503
  79.3000        526
  79.4000        523
  79.5000        509
  79.6000        511
  79.7000        493
  79.8000        523
  79.9000        519
  80.0000        496
  80.1000        511
  80.2000        532
  80.3000        492
  80.4000        512
  80.5000        481
  80.6000        475
  80.7000        557
  80.8000        494
  80.9000        516
  81.0000        514
  81.1000        486
  81.2000        509
  81.3000        486
  81.4000        519
  81.5000        552
  81.6000        504
  81.7000        511
  81.8000        474
  81.9000        509
  82.0000        514
  82.1000        505
  82.2000        485
  82.3000        514
  82.4000        499
  82.5000        532
  82.6000        486
  82.7000        493
  82.8000        514
  82.9000        497
  83.0000        476
  83.1000        540
  83.2000        507
  83.3000        512
  83.4000        531
  83.5000        511
  83.6000        491
  83.7000        522
  83.8000        536
  83.9000        519
  84.0000        522
  84.1000        517
  84.2000        489
  84.3000        506
  84.4000        507
  84.5000        527
  84.6000        499
  84.7000        446
  84.8000        487
  84.9000        480
  85.0000        529
  85.1000        521
  85.2000        528
  85.3000        537
  85.4000        465
  85.5000        490
  85.6000        514
  85.7000        498
  85.8000        509
  85.9000        508
  86.0000        512
  86.1000        521
  86.2000        549
  86.3000        501
  86.4000        533
  86.5000        502
  86.6000        462
  86.7000        468
  86.8000        503
  86.9000        520
  87.0000        534
  87.1000        511
  87.2000        498
  87.3000        519
  87.4000        531
  87.5000        536
  87.6000        508
  87.7000        507
  87.8000        501
  87.9000        491
  88.0000        487
  88.1000        497
  88.2000        515
  88.3000        528
  88.4000        512
  88.5000        494
  88.6000        525
  88.7000        513
  88.8000        531
  88.9000        527
  89.0000        486
  89.1000        515
  89.2000        503
  89.3000        499
  89.4000        548
  89.5000        494
  89.6000        503
  89.7000        523
  89.8000        504
  89.9000        497
  90.0000        512
  90.1000        494
  90.2000        497
  90.3000        537
  90.4000        533
  90.5000        495
  90.6000        503
  90.7000        495
  90.8000        509
  90.9000        526
  91.0000        497
  91.1000        504
  91.2000        503
  91.3000        520
  91.4000        495
  91.5000        546
  91.6000        511
  91.7000        507
  91.8000        505
  91.9000        481
  92.0000        521
  92.1000        506
  92.2000        521
  92.3000        533
  92.4000        435
  92.5000        525
  92.6000        526
  92.7000        563
  92.8000        460
  92.9000        532
  93.0000        539
  93.1000        530
  93.2000        505
  93.3000        480
  93.4000        514
  93.5000        515
  93.6000        512
  93.7000        481
  93.8000        511
  93.9000        535
  94.0000        543
  94.1000        505
  94.2000        540
  94.3000        521
  94.4000        475
  94.5000        541
  94.6000        501
  94.7000        513
  94.8000        487
  94.9000        485
  95.0000        546
  95.1000        488
  95.2000        523
  95.3000        502
  95.4000        472
  95.5000        524
  95.6000        496
  95.7000        531
  95.8000        525
  95.9000        496
  96.0000        516
  96.1000        509
  96.2000        502
  96.3000        498
  96.4000        535
  96.5000        539
  96.6000        532
  96.7000        506
  96.8000        513
  96.9000        553
  97.0000        527
  97.1000        540
  97.2000        534
  97.3000        498
  97.4000        547
  97.5000        515
  97.6000        521
  97.7000        513
  97.8000        507
  97.9000        531
  98.0000        556
  98.1000        570
  98.2000        552
  98.3000        596
  98.4000        612
  98.5000        613
  98.6000        705
  98.7000        811
  98.8000        748
  98.9000        878
  99.0000       1021
  99.1000       1054
  99.2000       1062
  99.3000       1066
  99.4000       1053
  99.5000       1031
  99.6000        916
  99.7000        873
  99.8000        783
  99.9000        718
 100.0000        649
 100.1000        610
 100.2000        615
 100.3000        542
 100.4000        578
 100.5000        523
 100.6000        570
 100.7000        498
 100.8000        530
 100.9000        497
 101.0000        535
 101.1000        487
 101.2000        523
 101.3000        538
 101.4000        502
 101.5000        534
 101.6000        508
 101.7000        506
 101.8000        483
 101.9000        508
 102.0000        500
 102.1000        519
 102.2000        518
 102.3000        519
 102.4000        499
 102.5000        491
 102.6000        486
 102.7000        493
 102.8000        502
 102.9000        558
 103.0000        493
 103.1000        522
 103.2000        522
 103.3000        494
 103.4000        536
 103.5000        528
 103.6000        489
 103.7000        540
 103.8000        451
 103.9000        537
 104.0000        516
 104.1000        513
 104.2000        519
 104.3000        505
 104.4000        468
 104.5000        483
 104.6000        521
 104.7000        491
 104.8000        539
 104.9000        477
 105.0000        515
 105.1000        520
 105.2000        519
 105.3000        495
 105.4000        499
 105.5000        541
 105.6000        549
 105.7000        503
 105.8000        494
 105.9000        494
 106.0000        503
 106.1000        518
 106.2000        526
 106.3000        493
 106.4000        519
 106.5000        529
 106.6000        504
 106.7000        515
 106.8000        539
 106.9000        516
 107.0000        510
 107.1000        471
 107.2000        497
 107.3000        559
 107.4000        495
 107.5000        533
 107.6000        518
 107.7000        585
 107.8000        523
 107.9000        489
 108.0000        516
 108.1000        484
 108.2000        487
 108.3000        532
 108.4000        507
 108.5000        488
 108.6000        491
 108.7000        537
 108.8000        496
 108.9000        539
 109.0000        502
 109.1000        536
 109.2000        499
 109.3000        523
 109.4000        534
 109.5000        500
 109.6000        525
 109.7000        510
 109.8000        491
 109.9000        498
 110.0000        477
 110.1000        489
 110.2000        566
 110.3000        490
 110.4000        544
 110.5000        556
 110.6000        510
 110.7000        530
 110.8000        535
 110.9000        526
 111.0000        477
 111.1000        501
 111.2000        517
 111.3000        460
 111.4000        505
 111.5000        535
 111.6000        521
 111.7000        487
 111.8000        549
 111.9000        500
 112.0000        506
 112.1000        534
 112.2000        526
 112.3000        531
 112.4000        529
 112.5000        549
 112.6000        500
 112.7000        515
 112.8000        481
 112.9000        474
 113.0000        517
 113.1000        480
 113.2000        500
 113.3000        515
 113.4000        454
 113.5000        512
 113.6000        539
 113.7000        490
 113.8000        537
 113.9000        481
 114.0000        515
 114.1000        492
 114.2000        498
 114.3000        516
 114.4000        512
 114.5000        538
 114.6000        504
 114.7000        515
 114.8000        497
 114.9000        536
 115.0000        494
 115.1000        489
 115.2000        503
 115.3000        481
 115.4000        476
 115.5000        490
 115.6000        500
 115.7000        529
 115.8000        508
 115.9000        527
 116.0000        465
 116.1000        482
 116.2000        538
 116.3000        494
 116.4000        533
 116.5000        534
 116.6000        503
 116.7000        470
 116.8000        526
 116.9000        557
 117.0000        525
 117.1000        485
 117.2000        521
 117.3000        528
 117.4000        519
 117.5000        498
 117.6000        495
 117.7000        507
 117.8000        492
 117.9000        537
 118.0000        483
 118.1000        514
 118.2000        513
 118.3000        561
 118.4000        524
 118.5000        510
 118.6000        502
 118.7000        517
 118.8000        487
 118.9000        522
 119.0000        536
 119.1000        504
 119.2000        481
 119.3000        529
 119.4000        496
 119.5000        524
 119.6000        534
 119.7000        480
 119.8000        543
 119.9000        504
 120.0000        510
 120.1000        532
 120.2000        532
 120.3000        518
 120.4000        534
 120.5000        514
 120.6000        581
 120.7000        495
 120.8000        554
 120.9000        489
 121.0000        551
 121.1000        505
 121.2000        543
 121.3000        531
 121.4000        497
 121.5000        526
 121.6000        485
 121.7000        537
 121.8000        528
 121.9000        502
 122.0000        511
 122.1000        518
 122.2000        515
 122.3000        512
 122.4000        499
 122.5000        548
 122.6000        529
 122.7000        541
 122.8000        567
 122.9000        569
 123.0000        566
 123.1000        579
 123.2000        560
 123.3000        545
 123.4000        590
 123.5000        609
 123.6000        557
 123.7000        593
 123.8000        550
 123.9000        541
 124.0000        561
 124.1000        560
 124.2000        539
 124.3000        554
 124.4000        575
 124.5000        544
 124.6000        512
 124.7000        505
 124.8000        510
 124.9000        536
 125.0000        512
 125.1000        505
 125.2000        523
 125.3000        525
 125.4000        548
 125.5000        519
 125.6000        493
 125.7000        500
 125.8000        514
 125.9000        519
 126.0000        513
 126.1000        504
 126.2000        516
 126.3000        521
 126.4000        527
 126.5000        494
 126.6000        488
 126.7000        492
 126.8000        509
 126.9000        519
 127.0000        461
 127.1000        537
 127.2000        501
 127.3000        463
 127.4000        507
 127.5000        520
[...]
 129.2000        440
 129.3000        467
 129.4000        445
 129.5000        443
 129.6000        407
 129.7000        460
 129.8000        434
 129.9000        427
 130.0000        452

; Data for range 53
_DRIVE = COUPLED
_STEPTIME = 0.2
_STEPSIZE = 0.1
_STEPMODE = C
_START = 40
_THETA = 20
_2THETA = 40
_KHI = 80
_PHI = 0
_X = -25
_Y = -25
_Z = 0
_DETECTOR = 1
; Detector type : Scintillation counter
_HV = 687
_GAIN = 80
_LLD = 0.69
_ULD = 1.866
_DETECTORSLIT = unkn
_AUX1 = 0
_AUX2 = 0
_AUX3 = 0
_TIMESTARTED = 1.03e+004
_TEMP_RATE = -1
_TEMP_DELAY = -1
_KV = 35
_MA = 40
_RANGE_WL = 1.78897
_3DPLANE = 0
_V4_ADDITIONALDETECTOR = 0
_V4_D8_DIBNUM = 1
_V4_DETECTORNAME = "Detector 1"
_V4_TTLDETECTOR = None
_V4_DETECTORTYPE = 1
_V4_DETECTORFLAGS = 524545
_V4_DETECTORHV = 687
_V4_DETECTORGAIN = 80
_V4_DETECTORLLD1 = 0.69
_V4_DETECTORWW1 = 1.176
_V4_DETECTORLLD2 = 0
_V4_DETECTORWW2 = 0
_V4_DETECTORPS = 0
_V4_DETECTORDT = 0
_V4_DETECTORPILEUPTIME = 0
_V4_COUNTERS_MASK = 1
_V4_DRIVES_MASK = 0
_V4_ENCODERS_MASK = 0
_2THETACOUNTS = 1
; 2THETA  Cnt1_D1
  40.0000        155
  40.1000        161
  40.2000        163
  40.3000        200
  40.4000        159
  40.5000        189
  40.6000        146
  40.7000        187
  40.8000        154
  40.9000        161
  41.0000        177
  41.1000        155
  41.2000        189
  41.3000        156
  41.4000        176
  41.5000        147
  41.6000        174
  41.7000        188
  41.8000        176
  41.9000        167
  42.0000        187
  42.1000        184
  42.2000        167
  42.3000        190
  42.4000        188
  42.5000        187
  42.6000        192
  42.7000        180
  42.8000        186
  42.9000        201
  43.0000        176
  43.1000        197
  43.2000        211
  43.3000        245
  43.4000        248
  43.5000        271
  43.6000        224
  43.7000        235
  43.8000        233
  43.9000        208
  44.0000        241
  44.1000        197
  44.2000        206
  44.3000        205
  44.4000        190
  44.5000        198
  44.6000        185
  44.7000        186
  44.8000        196
  44.9000        201
  45.0000        156
  45.1000        184
  45.2000        194
  45.3000        193
  45.4000        175
  45.5000        192
  45.6000        188
  45.7000        202
  45.8000        174
  45.9000        198
  46.0000        202
  46.1000        169
  46.2000        208
  46.3000        183
  46.4000        184
  46.5000        176
  46.6000        209
  46.7000        195
  46.8000        206
  46.9000        227
  47.0000        199
  47.1000        196
  47.2000        204
  47.3000        188
  47.4000        161
  47.5000        207
  47.6000        202
  47.7000        191
  47.8000        165
  47.9000        167
  48.0000        184
  48.1000        172
  48.2000        175
  48.3000        202
  48.4000        196
  48.5000        185
  48.6000        198
  48.7000        203
  48.8000        206
  48.9000        192
  49.0000        193
  49.1000        200
  49.2000        164
  49.3000        201
  49.4000        187
  49.5000        208
  49.6000        221
  49.7000        188
  49.8000        211
  49.9000        193
  50.0000        211
  50.1000        213
  50.2000        200
  50.3000        215
  50.4000        215
  50.5000        228
  50.6000        255
  50.7000        219
  50.8000        263
  50.9000        231
  51.0000        301
  51.1000        275
  51.2000        301
  51.3000        359
  51.4000        418
  51.5000        455
  51.6000        586
  51.7000        682
  51.8000        741
  51.9000        821
  52.0000        837
  52.1000        911
  52.2000        933
  52.3000        969
  52.4000       1005
  52.5000        985
  52.6000        907
  52.7000        868
  52.8000        810
  52.9000        718
  53.0000        677
  53.1000        578
  53.2000        527
  53.3000        406
  53.4000        374
  53.5000        303
  53.6000        283
  53.7000        273
  53.8000        282
  53.9000        227
  54.0000        208
  54.1000        237
  54.2000        235
  54.3000        197
  54.4000        212
  54.5000        236
  54.6000        228
  54.7000        218
  54.8000        223
  54.9000        232
  55.0000        213
  55.1000        244
  55.2000        249
  55.3000        222
  55.4000        233
  55.5000        252
  55.6000        219
  55.7000        239
  55.8000        219
  55.9000        220
  56.0000        224
  56.1000        232
  56.2000        227
  56.3000        214
  56.4000        209
  56.5000        213
  56.6000        240
  56.7000        220
  56.8000        237
  56.9000        222
  57.0000        249
  57.1000        209
  57.2000        202
  57.3000        238
  57.4000        243
  57.5000        244
  57.6000        235
  57.7000        214
  57.8000        245
  57.9000        220
  58.0000        204
  58.1000        235
  58.2000        229
  58.3000        234
  58.4000        227
  58.5000        227
  58.6000        236
  58.7000        234
  58.8000        228
  58.9000        237
  59.0000        234
  59.1000        236
  59.2000        222
  59.3000        242
  59.4000        258
  59.5000        222
  59.6000        264
  59.7000        231
  59.8000        233
  59.9000        229
  60.0000        225
  60.1000        261
  60.2000        240
  60.3000        225
  60.4000        227
  60.5000        216
  60.6000        228
  60.7000        235
  60.8000        231
  60.9000        233
  61.0000        240
  61.1000        238
  61.2000        248
  61.3000        226
  61.4000        277
  61.5000        238
  61.6000        229
  61.7000        272
  61.8000        264
  61.9000        237
  62.0000        249
  62.1000        238
  62.2000        234
  62.3000        249
  62.4000        209
  62.5000        221
  62.6000        240
  62.7000        254
  62.8000        236
  62.9000        228
  63.0000        249
  63.1000        266
  63.2000        240
  63.3000        243
  63.4000        233
  63.5000        259
  63.6000        236
  63.7000        261
  63.8000        235
  63.9000        246
  64.0000        242
  64.1000        258
  64.2000        228
  64.3000        228
  64.4000        236
  64.5000        259
  64.6000        224
  64.7000        244
  64.8000        246
  64.9000        250
  65.0000        258
  65.1000        248
  65.2000        256
  65.3000        253
  65.4000        258
  65.5000        247
  65.6000        255
  65.7000        248
  65.8000        238
  65.9000        265
  66.0000        234
  66.1000        241
  66.2000        247
  66.3000        255
  66.4000        262
  66.5000        221
  66.6000        244
  66.7000        254
  66.8000        272
  66.9000        254
  67.0000        253
  67.1000        268
  67.2000        264
  67.3000        244
  67.4000        237
  67.5000        260
  67.6000        275
  67.7000        255
  67.8000        255
  67.9000        219
  68.0000        219
  68.1000        248
  68.2000        261
  68.3000        275
  68.4000        251
  68.5000        305
  68.6000        255
  68.7000        260
  68.8000        251
  68.9000        261
  69.0000        264
  69.1000        256
  69.2000        268
  69.3000        269
  69.4000        268
  69.5000        278
  69.6000        274
  69.7000        275
  69.8000        246
  69.9000        236
  70.0000        253
  70.1000        247
  70.2000        261
  70.3000        273
  70.4000        253
  70.5000        258
  70.6000        257
  70.7000        262
  70.8000        277
  70.9000        217
  71.0000        272
  71.1000        288
  71.2000        239
  71.3000        296
  71.4000        241
  71.5000        259
  71.6000        270
  71.7000        266
  71.8000        246
  71.9000        260
  72.0000        290
  72.1000        253
  72.2000        248
  72.3000        278
  72.4000        266
  72.5000        254
  72.6000        253
  72.7000        274
  72.8000        269
  72.9000        258
  73.0000        256
  73.1000        267
  73.2000        281
  73.3000        286
  73.4000        256
  73.5000        232
  73.6000        278
  73.7000        262
  73.8000        273
  73.9000        253
  74.0000        276
  74.1000        299
  74.2000        257
  74.3000        306
  74.4000        271
  74.5000        255
  74.6000        269
  74.7000        253
  74.8000        284
  74.9000        324
  75.0000        274
  75.1000        301
  75.2000        291
  75.3000        243
  75.4000        289
  75.5000        315
  75.6000        273
  75.7000        262
  75.8000        291
  75.9000        269
  76.0000        299
  76.1000        304
  76.2000        302
  76.3000        317
  76.4000        294
  76.5000        297
  76.6000        297
  76.7000        340
  76.8000        297
  76.9000        325
  77.0000        336
  77.1000        331
  77.2000        335
  77.3000        302
  77.4000        329
  77.5000        330
  77.6000        312
  77.7000        294
  77.8000        323
  77.9000        301
  78.0000        319
  78.1000        334
  78.2000        281
  78.3000        271
  78.4000        279
  78.5000        281
  78.6000        298
  78.7000        272
  78.8000        277
  78.9000        327
  79.0000        284
  79.1000        280
  79.2000        331
  79.3000        321
  79.4000        286
  79.5000        297
  79.6000        267
  79.7000        290
  79.8000        303
  79.9000        274
  80.0000        289
  80.1000        273
  80.2000        292
  80.3000        321
  80.4000        303
  80.5000        315
  80.6000        292
  80.7000        311
  80.8000        306
  80.9000        290
  81.0000        295
  81.1000        298
  81.2000        298
  81.3000        291
  81.4000        313
  81.5000        293
  81.6000        292
  81.7000        309
  81.8000        270
  81.9000        304
  82.0000        300
  82.1000        267
  82.2000        329
  82.3000        288
  82.4000        323
  82.5000        295
  82.6000        278
  82.7000        276
  82.8000        309
  82.9000        276
  83.0000        265
  83.1000        292
  83.2000        306
  83.3000        286
  83.4000        317
  83.5000        311
  83.6000        329
  83.7000        312
  83.8000        311
  83.9000        322
  84.0000        290
  84.1000        312
  84.2000        319
  84.3000        330
  84.4000        298
  84.5000        301
  84.6000        297
  84.7000        325
  84.8000        274
  84.9000        300
  85.0000        301
  85.1000        319
  85.2000        303
  85.3000        311
  85.4000        308
  85.5000        284
  85.6000        330
  85.7000        286
  85.8000        311
  85.9000        294
  86.0000        342
  86.1000        279
  86.2000        323
  86.3000        315
  86.4000        317
  86.5000        321
  86.6000        288
  86.7000        328
  86.8000        294
  86.9000        318
  87.0000        285
  87.1000        332
  87.2000        298
  87.3000        332
  87.4000        303
  87.5000        325
  87.6000        318
  87.7000        342
  87.8000        318
  87.9000        300
  88.0000        334
  88.1000        308
  88.2000        331
  88.3000        316
  88.4000        307
  88.5000        310
  88.6000        310
  88.7000        316
  88.8000        331
  88.9000        353
  89.0000        304
  89.1000        346
  89.2000        336
  89.3000        358
  89.4000        335
  89.5000        335
  89.6000        326
  89.7000        316
  89.8000        326
  89.9000        331
  90.0000        324
  90.1000        325
  90.2000        320
  90.3000        331
  90.4000        295
  90.5000        324
  90.6000        326
  90.7000        330
  90.8000        327
  90.9000        328
  91.0000        327
  91.1000        353
  91.2000        337
  91.3000        330
  91.4000        301
  91.5000        306
  91.6000        353
  91.7000        310
  91.8000        364
  91.9000        334
  92.0000        371
  92.1000        339
  92.2000        318
  92.3000        330
  92.4000        336
  92.5000        330
  92.6000        339
  92.7000        345
  92.8000        354
  92.9000        338
  93.0000        343
  93.1000        332
  93.2000        331
  93.3000        325
  93.4000        325
  93.5000        380
  93.6000        319
  93.7000        313
  93.8000        301
  93.9000        356
  94.0000        337
  94.1000        342
  94.2000        338
  94.3000        350
  94.4000        370
  94.5000        315
  94.6000        351
  94.7000        298
  94.8000        347
  94.9000        342
  95.0000        299
  95.1000        370
  95.2000        341
  95.3000        344
  95.4000        389
  95.5000        331
  95.6000        343
  95.7000        373
  95.8000        312
  95.9000        352
  96.0000        370
  96.1000        323
  96.2000        323
  96.3000        380
  96.4000        352
  96.5000        346
  96.6000        353
  96.7000        367
  96.8000        371
  96.9000        343
  97.0000        354
  97.1000        354
  97.2000        362
  97.3000        366
  97.4000        394
  97.5000        395
  97.6000        389
  97.7000        362
  97.8000        375
  97.9000        376
  98.0000        449
  98.1000        426
  98.2000        440
  98.3000        515
  98.4000        514
  98.5000        572
  98.6000        523
  98.7000        568
  98.8000        623
  98.9000        599
  99.0000        624
  99.1000        605
  99.2000        592
  99.3000        626
  99.4000        640
  99.5000        604
  99.6000        613
  99.7000        571
  99.8000        512
  99.9000        520
 100.0000        519
 100.1000        508
 100.2000        471
 100.3000        453
 100.4000        461
 100.5000        445
 100.6000        417
 100.7000        439
 100.8000        418
 100.9000        398
 101.0000        401
 101.1000        403
 101.2000        372
 101.3000        417
 101.4000        399
 101.5000        363
 101.6000        383
 101.7000        403
 101.8000        391
 101.9000        322
 102.0000        388
 102.1000        334
 102.2000        410
 102.3000        391
 102.4000        431
 102.5000        379
 102.6000        398
 102.7000        380
 102.8000        410
 102.9000        383
 103.0000        392
 103.1000        377
 103.2000        374
 103.3000        425
 103.4000        353
 103.5000        364
 103.6000        387
 103.7000        374
 103.8000        405
 103.9000        432
 104.0000        403
 104.1000        380
 104.2000        392
 104.3000        386
 104.4000        379
 104.5000        391
 104.6000        368
 104.7000        347
 104.8000        392
 104.9000        368
 105.0000        378
 105.1000        395
 105.2000        383
 105.3000        401
 105.4000        377
 105.5000        380
 105.6000        398
 105.7000        375
 105.8000        408
 105.9000        389
 106.0000        412
 106.1000        373
 106.2000        378
 106.3000        390
 106.4000        375
 106.5000        372
 106.6000        376
 106.7000        396
 106.8000        364
 106.9000        421
 107.0000        381
 107.1000        392
 107.2000        397
 107.3000        366
 107.4000        412
 107.5000        398
 107.6000        438
 107.7000        396
 107.8000        370
 107.9000        377
 108.0000        392
 108.1000        392
 108.2000        337
 108.3000        422
 108.4000        425
 108.5000        402
 108.6000        404
 108.7000        409
 108.8000        386
 108.9000        423
 109.0000        376
 109.1000        408
 109.2000        370
 109.3000        429
 109.4000        417
 109.5000        401
 109.6000        398
 109.7000        399
 109.8000        382
 109.9000        416
 110.0000        397
 110.1000        429
 110.2000        418
 110.3000        410
 110.4000        421
 110.5000        379
 110.6000        441
 110.7000        399
 110.8000        414
 110.9000        400
 111.0000        411
 111.1000        387
 111.2000        415
 111.3000        395
 111.4000        428
 111.5000        413
 111.6000        387
 111.7000        408
 111.8000        400
 111.9000        383
 112.0000        396
 112.1000        426
 112.2000        402
 112.3000        428
 112.4000        426
 112.5000        445
 112.6000        382
 112.7000        412
 112.8000        391
 112.9000        436
 113.0000        413
 113.1000        406
 113.2000        418
 113.3000        405
 113.4000        397
 113.5000        407
 113.6000        400
 113.7000        399
 113.8000        438
 113.9000        422
 114.0000        390
 114.1000        386
 114.2000        392
 114.3000        419
 114.4000        417
 114.5000        409
 114.6000        403
 114.7000        381
 114.8000        436
 114.9000        434
 115.0000        425
 115.1000        426
 115.2000        433
 115.3000        413
 115.4000        413
 115.5000        415
 115.6000        392
 115.7000        429
 115.8000        429
 115.9000        425
 116.0000        411
 116.1000        445
 116.2000        395
 116.3000        423
 116.4000        420
 116.5000        410
 116.6000        399
 116.7000        422
 116.8000        407
 116.9000        445
 117.0000        396
 117.1000        403
 117.2000        420
 117.3000        418
 117.4000        437
 117.5000        423
 117.6000        370
 117.7000        440
 117.8000        421
 117.9000        431
 118.0000        407
 118.1000        429
 118.2000        438
 118.3000        424
 118.4000        430
 118.5000        442
 118.6000        444
 118.7000        424
 118.8000        440
 118.9000        424
 119.0000        475
 119.1000        460
 119.2000        435
 119.3000        440
 119.4000        438
 119.5000        430
 119.6000        472
 119.7000        422
 119.8000        447
 119.9000        436
 120.0000        395
 120.1000        420
 120.2000        434
 120.3000        446
 120.4000        436
 120.5000        405
 120.6000        437
 120.7000        450
 120.8000        451
 120.9000        398
 121.0000        475
 121.1000        438
 121.2000        447
 121.3000        469
 121.4000        440
 121.5000        462
 121.6000        460
 121.7000        426
 121.8000        444
 121.9000        454
 122.0000        465
 122.1000        443
 122.2000        516
 122.3000        503
 122.4000        497
 122.5000        502
 122.6000        491
 122.7000        541
 122.8000        540
 122.9000        569
 123.0000        562
 123.1000        619
 123.2000        563
 123.3000        580
 123.4000        619
 123.5000        565
 123.6000        550
 123.7000        588
 123.8000        589
 123.9000        553
 124.0000        520
 124.1000        528
 124.2000        536
 124.3000        469
 124.4000        496
 124.5000        464
 124.6000        482
 124.7000        462
 124.8000        483
 124.9000        458
 125.0000        463
 125.1000        450
 125.2000        433
 125.3000        428
 125.4000        429
 125.5000        450
 125.6000        426
 125.7000        426
 125.8000        440
 125.9000        475
 126.0000        458
 126.1000        439
 126.2000        410
 126.3000        449
 126.4000        413
 126.5000        413
 126.6000        466
 126.7000        440
 126.8000        448
 126.9000        453
 127.0000        441
 127.1000        414
 127.2000        404
 127.3000        428
 127.4000        428
 127.5000        443
 127.6000        471
 127.7000        403
 127.8000        459
 127.9000        463
 128.0000        417
 128.1000        424
 128.2000        451
 128.3000        448
 128.4000        419
 128.5000        436
 128.6000        421
 128.7000        462
 128.8000        455
 128.9000        468
 129.0000        415
 129.1000        399
 129.2000        404
 129.3000        448
 129.4000        451
 129.5000        424
 129.6000        389
 129.7000        450
 129.8000        451
 129.9000        458
 130.0000        425