File: exp_dat/old/exp_2013_11_11/22pct_-30L.uxd
; (content of file C:\DIFFDAT1\GIFT\MDL\Seawoong Lee\20131104_MV8\equal_area_maxkhi080_n8_2th40_130_x25y-25_-30L.raw)
_FILEVERSION = 3
_SAMPLE =
_+SAMPLE =
_SITE = Korea
_USER = Admin
_GONIOMETER_CODE = 20
; Goniometer : D8 theta/2theta, stage : Unknown
_SAMPLE_CHANGER_CODE = 0
_ATTACHMENTS_CODE = 0
_GONIOMETER_RADIUS = 300
_FIXED_DIVSLIT = 1
_FIXED_SAMPLESLIT = 0
_SOLLER_SLITS = 2
_FIXED_DETSLIT = 0.1
_MONOCHROMATOR = 0
; Incident beam monochromator : None
_SOLLER_SLITS_2 = 2
_THIN_FILM = N
_BETA_FILTER = Y
_FIXED_ANTISLIT = 0.6
_ANALYZER_CODE = 0
; Received beam analyzer : None
_DATEMEASURED = "07-Nov-2013 12:41:03"
_WL_UNIT = A
_WL1 = 1.78897
_WL2 = 1.79285
_WL3 = 1.62079
_WLRATIO = 0.5
_ANODE = Co
_V4_INF_CREATOR = XRDWizard
_V4_INF_CREATOR_VERSION = V2.9.0.22
_V4_INF_WIZARD_VERSION = V2.9.0.22
_V4_INF_WIZARD_ADDINS = V2.9.0.22
_V4_INF_WIZARD_DOCTYPE = XRD
_V4_INF_OSUSER = Postech
_V4_INF_USER = Admin
_V4_INF_SITE = Korea

; Data for range 1
_DRIVE = COUPLED
_STEPTIME = 0.2
_STEPSIZE = 0.1
_STEPMODE = C
_START = 40
_THETA = 20
_2THETA = 40
_KHI = 0
_PHI = 0
_X = 25
_Y = -25
_Z = 0
_DETECTOR = 1
; Detector type : Scintillation counter
_HV = 687
_GAIN = 80
_LLD = 0.69
_ULD = 1.866
_DETECTORSLIT = unkn
_AUX1 = 0
_AUX2 = 0
_AUX3 = 0
_TIMESTARTED = 13
_TEMP_RATE = -1
_TEMP_DELAY = -1
_KV = 35
_MA = 40
_RANGE_WL = 1.78897
_3DPLANE = 0
_V4_ADDITIONALDETECTOR = 0
_V4_D8_DIBNUM = 1
_V4_DETECTORNAME = "Detector 1"
_V4_TTLDETECTOR = None
_V4_DETECTORTYPE = 1
_V4_DETECTORFLAGS = 524545
_V4_DETECTORHV = 687
_V4_DETECTORGAIN = 80
_V4_DETECTORLLD1 = 0.69
_V4_DETECTORWW1 = 1.176
_V4_DETECTORLLD2 = 0
_V4_DETECTORWW2 = 0
_V4_DETECTORPS = 0
_V4_DETECTORDT = 0
_V4_DETECTORPILEUPTIME = 0
_V4_COUNTERS_MASK = 1
_V4_DRIVES_MASK = 0
_V4_ENCODERS_MASK = 0
_2THETACOUNTS = 1
; 2THETA  Cnt1_D1
  40.0000        482
  40.1000        493
  40.2000        481
  40.3000        441
  40.4000        468
  40.5000        491
  40.6000        457
  40.7000        516
  40.8000        516
  40.9000        516
  41.0000        502
  41.1000        494
  41.2000        501
  41.3000        477
  41.4000        486
  41.5000        475
  41.6000        502
  41.7000        507
  41.8000        508
  41.9000        480
  42.0000        495
  42.1000        512
  42.2000        502
  42.3000        494
  42.4000        510
  42.5000        512
  42.6000        532
  42.7000        495
  42.8000        499
  42.9000        517
  43.0000        496
  43.1000        542
  43.2000        506
  43.3000        527
  43.4000        513
  43.5000        518
  43.6000        475
  43.7000        514
  43.8000        496
  43.9000        483
  44.0000        464
  44.1000        510
  44.2000        537
  44.3000        465
  44.4000        509
  44.5000        517
  44.6000        501
  44.7000        468
  44.8000        501
  44.9000        485
  45.0000        537
  45.1000        532
  45.2000        503
  45.3000        496
  45.4000        512
  45.5000        502
  45.6000        484
  45.7000        550
  45.8000        549
  45.9000        514
  46.0000        486
  46.1000        482
  46.2000        551
  46.3000        553
  46.4000        586
  46.5000        562
  46.6000        547
  46.7000        556
  46.8000        530
  46.9000        533
  47.0000        537
  47.1000        503
  47.2000        576
  47.3000        484
  47.4000        520
  47.5000        521
  47.6000        544
  47.7000        501
  47.8000        502
  47.9000        514
  48.0000        500
  48.1000        496
  48.2000        480
  48.3000        481
  48.4000        533
  48.5000        503
  48.6000        544
  48.7000        542
  48.8000        543
  48.9000        511
  49.0000        579
  49.1000        534
  49.2000        559
  49.3000        510
  49.4000        525
  49.5000        493
  49.6000        490
  49.7000        504
  49.8000        525
  49.9000        543
  50.0000        505
  50.1000        479
  50.2000        526
  50.3000        549
  50.4000        527
  50.5000        541
  50.6000        595
  50.7000        594
  50.8000        559
  50.9000        546
  51.0000        582
  51.1000        580
  51.2000        590
  51.3000        555
  51.4000        618
  51.5000        671
  51.6000        804
  51.7000       1028
  51.8000       1236
  51.9000       1455
  52.0000       1519
  52.1000       1501
  52.2000       1516
  52.3000       1462
  52.4000       1428
  52.5000       1228
  52.6000       1015
  52.7000        763
  52.8000        642
  52.9000        563
  53.0000        573
  53.1000        547
  53.2000        534
  53.3000        528
  53.4000        522
  53.5000        561
  53.6000        524
  53.7000        532
  53.8000        510
  53.9000        525
  54.0000        508
  54.1000        533
  54.2000        563
  54.3000        560
  54.4000        551
  54.5000        559
  54.6000        495
  54.7000        570
  54.8000        518
  54.9000        532
  55.0000        546
  55.1000        478
  55.2000        561
  55.3000        566
  55.4000        527
  55.5000        521
  55.6000        518
  55.7000        499
  55.8000        550
  55.9000        555
  56.0000        567
  56.1000        523
  56.2000        555
  56.3000        506
  56.4000        555
  56.5000        519
  56.6000        599
  56.7000        537
  56.8000        514
  56.9000        480
  57.0000        559
  57.1000        480
  57.2000        548
  57.3000        523
  57.4000        540
  57.5000        505
  57.6000        510
  57.7000        545
  57.8000        518
  57.9000        521
  58.0000        529
  58.1000        546
  58.2000        548
  58.3000        518
  58.4000        532
  58.5000        528
  58.6000        517
  58.7000        524
  58.8000        548
  58.9000        522
  59.0000        528
  59.1000        531
  59.2000        540
  59.3000        547
  59.4000        526
  59.5000        529
  59.6000        534
  59.7000        519
  59.8000        552
  59.9000        518
  60.0000        518
  60.1000        522
  60.2000        529
  60.3000        490
  60.4000        513
  60.5000        531
  60.6000        495
  60.7000        536
  60.8000        540
  60.9000        525
  61.0000        504
  61.1000        507
  61.2000        554
  61.3000        475
  61.4000        551
  61.5000        541
  61.6000        518
  61.7000        535
  61.8000        523
  61.9000        536
  62.0000        498
  62.1000        526
  62.2000        515
  62.3000        537
  62.4000        504
  62.5000        466
  62.6000        521
  62.7000        528
  62.8000        479
  62.9000        504
  63.0000        514
  63.1000        536
  63.2000        498
  63.3000        489
  63.4000        535
  63.5000        563
  63.6000        549
  63.7000        523
  63.8000        537
  63.9000        511
  64.0000        509
  64.1000        517
  64.2000        532
  64.3000        542
  64.4000        522
  64.5000        512
  64.6000        565
  64.7000        534
  64.8000        515
  64.9000        528
  65.0000        520
  65.1000        507
  65.2000        462
  65.3000        549
  65.4000        513
  65.5000        578
  65.6000        500
  65.7000        523
  65.8000        527
  65.9000        522
  66.0000        521
  66.1000        543
  66.2000        523
  66.3000        548
  66.4000        520
  66.5000        520
  66.6000        493
  66.7000        518
  66.8000        552
  66.9000        503
  67.0000        498
  67.1000        517
  67.2000        508
  67.3000        530
  67.4000        533
  67.5000        483
  67.6000        537
  67.7000        534
  67.8000        553
  67.9000        523
  68.0000        492
  68.1000        529
  68.2000        528
  68.3000        492
  68.4000        542
  68.5000        531
  68.6000        536
  68.7000        567
  68.8000        519
  68.9000        519
  69.0000        501
  69.1000        509
  69.2000        517
  69.3000        482
  69.4000        506
  69.5000        526
  69.6000        555
  69.7000        533
  69.8000        481
  69.9000        561
  70.0000        541
  70.1000        535
  70.2000        526
  70.3000        540
  70.4000        495
  70.5000        535
  70.6000        514
  70.7000        550
  70.8000        525
  70.9000        516
  71.0000        539
  71.1000        488
  71.2000        549
  71.3000        527
  71.4000        533
  71.5000        517
  71.6000        478
  71.7000        544
  71.8000        530
  71.9000        473
  72.0000        533
  72.1000        519
  72.2000        531
  72.3000        527
  72.4000        532
  72.5000        547
  72.6000        529
  72.7000        574
  72.8000        543
  72.9000        520
  73.0000        530
  73.1000        536
  73.2000        489
  73.3000        566
  73.4000        509
  73.5000        501
  73.6000        502
  73.7000        540
  73.8000        535
  73.9000        549
  74.0000        521
  74.1000        492
  74.2000        494
  74.3000        500
  74.4000        505
  74.5000        534
  74.6000        538
  74.7000        546
  74.8000        530
  74.9000        534
  75.0000        503
  75.1000        540
  75.2000        554
  75.3000        520
  75.4000        509
  75.5000        600
  75.6000        541
  75.7000        542
  75.8000        532
  75.9000        539
  76.0000        558
  76.1000        623
  76.2000        637
  76.3000        743
  76.4000        828
  76.5000        896
  76.6000        970
  76.7000       1141
  76.8000       1089
  76.9000       1131
  77.0000       1212
  77.1000       1114
  77.2000       1078
  77.3000        916
  77.4000        792
  77.5000        701
  77.6000        647
  77.7000        556
  77.8000        562
  77.9000        541
  78.0000        601
  78.1000        536
  78.2000        541
  78.3000        545
  78.4000        550
  78.5000        566
  78.6000        522
  78.7000        567
  78.8000        510
  78.9000        481
  79.0000        508
  79.1000        495
  79.2000        514
  79.3000        531
  79.4000        505
  79.5000        521
  79.6000        542
  79.7000        540
  79.8000        501
  79.9000        492
  80.0000        482
  80.1000        476
  80.2000        518
  80.3000        595
  80.4000        477
  80.5000        526
  80.6000        496
  80.7000        492
  80.8000        536
  80.9000        532
  81.0000        538
  81.1000        520
  81.2000        480
  81.3000        540
  81.4000        553
  81.5000        541
  81.6000        549
  81.7000        554
  81.8000        546
  81.9000        525
  82.0000        516
  82.1000        551
  82.2000        541
  82.3000        537
  82.4000        511
  82.5000        496
  82.6000        503
  82.7000        503
  82.8000        502
  82.9000        537
  83.0000        509
  83.1000        520
  83.2000        531
  83.3000        537
  83.4000        518
  83.5000        479
  83.6000        554
  83.7000        527
  83.8000        494
  83.9000        522
  84.0000        544
  84.1000        498
  84.2000        531
  84.3000        548
  84.4000        547
  84.5000        489
  84.6000        547
  84.7000        483
  84.8000        512
  84.9000        510
  85.0000        535
  85.1000        487
  85.2000        522
  85.3000        538
  85.4000        579
  85.5000        506
  85.6000        545
  85.7000        542
  85.8000        533
  85.9000        493
  86.0000        521
  86.1000        530
  86.2000        522
  86.3000        499
  86.4000        546
  86.5000        528
  86.6000        528
  86.7000        564
  86.8000        535
  86.9000        554
  87.0000        509
  87.1000        522
  87.2000        512
  87.3000        513
  87.4000        541
  87.5000        519
  87.6000        495
  87.7000        486
  87.8000        542
  87.9000        510
  88.0000        489
  88.1000        521
  88.2000        567
  88.3000        500
  88.4000        476
  88.5000        487
  88.6000        527
  88.7000        529
  88.8000        544
  88.9000        532
  89.0000        561
  89.1000        569
  89.2000        549
  89.3000        557
  89.4000        545
  89.5000        517
  89.6000        532
  89.7000        592
  89.8000        581
  89.9000        507
  90.0000        518
  90.1000        500
  90.2000        529
  90.3000        527
  90.4000        515
  90.5000        512
  90.6000        543
  90.7000        555
  90.8000        533
  90.9000        530
  91.0000        507
  91.1000        527
  91.2000        522
  91.3000        489
  91.4000        550
  91.5000        523
  91.6000        531
  91.7000        531
  91.8000        531
  91.9000        505
  92.0000        518
  92.1000        519
  92.2000        548
  92.3000        552
  92.4000        527
  92.5000        539
  92.6000        545
  92.7000        505
  92.8000        552
  92.9000        491
  93.0000        518
  93.1000        509
  93.2000        473
  93.3000        541
  93.4000        500
  93.5000        506
  93.6000        492
  93.7000        540
  93.8000        482
  93.9000        545
  94.0000        520
  94.1000        499
  94.2000        524
  94.3000        521
  94.4000        521
  94.5000        493
  94.6000        523
  94.7000        534
  94.8000        513
  94.9000        512
  95.0000        508
  95.1000        551
  95.2000        530
  95.3000        511
  95.4000        514
  95.5000        485
  95.6000        568
  95.7000        518
  95.8000        527
  95.9000        583
  96.0000        499
  96.1000        532
  96.2000        553
  96.3000        527
  96.4000        555
  96.5000        502
  96.6000        552
  96.7000        520
  96.8000        517
  96.9000        528
  97.0000        519
  97.1000        546
  97.2000        571
  97.3000        496
  97.4000        555
  97.5000        553
  97.6000        553
  97.7000        527
  97.8000        581
  97.9000        520
  98.0000        546
  98.1000        590
  98.2000        642
  98.3000        542
  98.4000        619
  98.5000        656
  98.6000        744
  98.7000        844
  98.8000        980
  98.9000       1067
  99.0000       1277
  99.1000       1346
  99.2000       1405
  99.3000       1446
  99.4000       1398
  99.5000       1399
  99.6000       1310
  99.7000       1124
  99.8000        954
  99.9000        867
 100.0000        733
 100.1000        694
 100.2000        637
 100.3000        577
 100.4000        567
 100.5000        559
 100.6000        540
 100.7000        574
 100.8000        538
 100.9000        539
 101.0000        520
 101.1000        559
 101.2000        547
 101.3000        553
 101.4000        520
 101.5000        509
 101.6000        582
 101.7000        516
 101.8000        595
 101.9000        535
 102.0000        513
 102.1000        509
 102.2000        505
 102.3000        524
 102.4000        505
 102.5000        581
 102.6000        542
 102.7000        551
 102.8000        520
 102.9000        506
 103.0000        561
 103.1000        520
 103.2000        530
 103.3000        506
 103.4000        519
 103.5000        550
 103.6000        511
 103.7000        537
 103.8000        473
 103.9000        486
 104.0000        470
 104.1000        535
 104.2000        564
 104.3000        522
 104.4000        489
 104.5000        498
 104.6000        536
 104.7000        550
 104.8000        530
 104.9000        502
 105.0000        505
 105.1000        520
 105.2000        512
 105.3000        521
 105.4000        529
 105.5000        518
 105.6000        508
 105.7000        541
 105.8000        507
 105.9000        517
 106.0000        501
 106.1000        550
 106.2000        534
 106.3000        562
 106.4000        493
 106.5000        525
 106.6000        509
 106.7000        484
 106.8000        489
 106.9000        528
 107.0000        515
 107.1000        541
 107.2000        522
 107.3000        509
 107.4000        495
 107.5000        553
 107.6000        507
 107.7000        494
 107.8000        518
 107.9000        499
 108.0000        535
 108.1000        497
 108.2000        520
 108.3000        500
 108.4000        561
 108.5000        514
 108.6000        515
 108.7000        568
 108.8000        534
 108.9000        538
 109.0000        483
 109.1000        553
 109.2000        535
 109.3000        534
 109.4000        535
 109.5000        507
 109.6000        519
 109.7000        541
 109.8000        553
 109.9000        535
 110.0000        581
 110.1000        524
 110.2000        524
 110.3000        537
 110.4000        545
 110.5000        556
 110.6000        506
 110.7000        581
 110.8000        534
 110.9000        534
 111.0000        529
 111.1000        518
 111.2000        489
 111.3000        503
 111.4000        536
 111.5000        558
 111.6000        528
 111.7000        536
 111.8000        507
 111.9000        515
 112.0000        544
 112.1000        501
 112.2000        514
 112.3000        540
 112.4000        500
 112.5000        498
 112.6000        508
 112.7000        506
 112.8000        519
 112.9000        516
 113.0000        508
 113.1000        556
 113.2000        520
 113.3000        520
 113.4000        547
 113.5000        524
 113.6000        507
 113.7000        522
 113.8000        505
 113.9000        522
 114.0000        513
 114.1000        566
 114.2000        519
 114.3000        539
 114.4000        515
 114.5000        539
 114.6000        512
 114.7000        516
 114.8000        508
 114.9000        538
 115.0000        534
 115.1000        499
 115.2000        491
 115.3000        543
 115.4000        520
 115.5000        535
 115.6000        503
 115.7000        529
 115.8000        515
 115.9000        498
 116.0000        532
 116.1000        522
 116.2000        536
 116.3000        539
 116.4000        513
 116.5000        574
 116.6000        516
 116.7000        507
 116.8000        516
 116.9000        533
 117.0000        492
 117.1000        540
 117.2000        496
 117.3000        497
 117.4000        517
 117.5000        506
 117.6000        539
 117.7000        541
 117.8000        554
 117.9000        512
 118.0000        503
 118.1000        547
 118.2000        477
 118.3000        518
 118.4000        520
 118.5000        478
 118.6000        552
 118.7000        588
 118.8000        533
 118.9000        538
 119.0000        551
 119.1000        526
 119.2000        502
 119.3000        510
 119.4000        541
 119.5000        510
 119.6000        501
 119.7000        492
 119.8000        545
 119.9000        556
 120.0000        505
 120.1000        544
 120.2000        503
 120.3000        554
 120.4000        497
 120.5000        471
 120.6000        513
 120.7000        474
 120.8000        538
 120.9000        551
 121.0000        513
 121.1000        539
 121.2000        526
 121.3000        527
 121.4000        526
 121.5000        522
 121.6000        547
 121.7000        500
 121.8000        502
 121.9000        512
 122.0000        510
 122.1000        510
 122.2000        536
 122.3000        551
 122.4000        544
 122.5000        597
 122.6000        504
 122.7000        540
 122.8000        567
 122.9000        567
 123.0000        593
 123.1000        606
 123.2000        585
 123.3000        609
 123.4000        595
 123.5000        591
 123.6000        614
 123.7000        643
 123.8000        610
 123.9000        578
 124.0000        548
 124.1000        553
 124.2000        579
 124.3000        541
 124.4000        484
 124.5000        501
 124.6000        560
 124.7000        556
 124.8000        536
 124.9000        541
 125.0000        532
 125.1000        509
 125.2000        493
 125.3000        547
 125.4000        529
 125.5000        513
 125.6000        526
 125.7000        518
 125.8000        529
 125.9000        541
 126.0000        504
 126.1000        486
 126.2000        552
 126.3000        544
 126.4000        486
 126.5000        481
 126.6000        471
 126.7000        504
 126.8000        549
 126.9000        521
 127.0000        521
 127.1000        508
 127.2000        531
 127.3000        557
 127.4000        531
 127.5000        527
 127.6000        509
 127.7000        504
 127.8000        507
 127.9000        516
 128.0000        520
 128.1000        497
 128.2000        554
 128.3000        517
 128.4000        534
 128.5000        540
 128.6000        497
 128.7000        528
 128.8000        523
 128.9000        537
 129.0000        527
 129.1000        524
 129.2000        484
 129.3000        538
 129.4000        540
 129.5000        534
 129.6000        558
 129.7000        507
 129.8000        502
 129.9000        517
 130.0000        498

; Data for range 2
_DRIVE = COUPLED
_STEPTIME = 0.2
_STEPSIZE = 0.1
_STEPMODE = C
_START = 40
_THETA = 20
_2THETA = 40
_KHI = 10.5
_PHI = 60
_X = 25
_Y = -25
_Z = 0
_DETECTOR = 1
; Detector type : Scintillation counter
_HV = 687
_GAIN = 80
_LLD = 0.69
_ULD = 1.866
_DETECTORSLIT = unkn
_AUX1 = 0
_AUX2 = 0
_AUX3 = 0
_TIMESTARTED = 210
_TEMP_RATE = -1
_TEMP_DELAY = -1
_KV = 35
_MA = 40
_RANGE_WL = 1.78897
_3DPLANE = 0
_V4_ADDITIONALDETECTOR = 0
_V4_D8_DIBNUM = 1
_V4_DETECTORNAME = "Detector 1"
_V4_TTLDETECTOR = None
_V4_DETECTORTYPE = 1
_V4_DETECTORFLAGS = 524545
_V4_DETECTORHV = 687
_V4_DETECTORGAIN = 80
_V4_DETECTORLLD1 = 0.69
_V4_DETECTORWW1 = 1.176
_V4_DETECTORLLD2 = 0
_V4_DETECTORWW2 = 0
_V4_DETECTORPS = 0
_V4_DETECTORDT = 0
_V4_DETECTORPILEUPTIME = 0
_V4_COUNTERS_MASK = 1
_V4_DRIVES_MASK = 0
_V4_ENCODERS_MASK = 0
_2THETACOUNTS = 1
; 2THETA  Cnt1_D1
  40.0000        518
  40.1000        517
  40.2000        524
  40.3000        535
  40.4000        528
  40.5000        528
  40.6000        531
  40.7000        529
  40.8000        496
  40.9000        549
  41.0000        546
  41.1000        511
  41.2000        543
  41.3000        530
  41.4000        503
  41.5000        553
  41.6000        472
  41.7000        504
  41.8000        525
  41.9000        521
  42.0000        560
  42.1000        502
  42.2000        517
  42.3000        554
  42.4000        504
  42.5000        532
  42.6000        570
  42.7000        509
  42.8000        566
  42.9000        531
  43.0000        535
  43.1000        564
  43.2000        521
  43.3000        506
  43.4000        526
  43.5000        507
  43.6000        510
  43.7000        497
  43.8000        527
  43.9000        555
  44.0000        536
  44.1000        477
  44.2000        513
  44.3000        536
  44.4000        543
  44.5000        512
  44.6000        589
  44.7000        527
  44.8000        545
  44.9000        514
  45.0000        529
  45.1000        527
  45.2000        555
  45.3000        526
  45.4000        526
  45.5000        532
  45.6000        547
  45.7000        522
  45.8000        531
  45.9000        535
  46.0000        508
  46.1000        570
  46.2000        469
  46.3000        516
  46.4000        535
  46.5000        502
  46.6000        561
  46.7000        562
  46.8000        540
  46.9000        540
  47.0000        526
  47.1000        525
  47.2000        563
  47.3000        475
  47.4000        517
  47.5000        523
  47.6000        548
  47.7000        533
  47.8000        506
  47.9000        529
  48.0000        539
  48.1000        519
  48.2000        488
  48.3000        512
  48.4000        564
  48.5000        521
  48.6000        532
  48.7000        554
  48.8000        522
  48.9000        490
  49.0000        540
  49.1000        549
  49.2000        546
  49.3000        504
  49.4000        513
  49.5000        526
  49.6000        527
  49.7000        546
  49.8000        520
  49.9000        564
  50.0000        531
  50.1000        508
  50.2000        526
  50.3000        495
  50.4000        495
  50.5000        534
  50.6000        522
  50.7000        571
  50.8000        527
  50.9000        534
  51.0000        542
  51.1000        574
  51.2000        595
  51.3000        568
  51.4000        588
  51.5000        731
  51.6000        929
  51.7000       1136
  51.8000       1245
  51.9000       1417
  52.0000       1538
  52.1000       1556
  52.2000       1519
  52.3000       1397
  52.4000       1389
  52.5000       1197
  52.6000        906
  52.7000        758
  52.8000        595
  52.9000        536
  53.0000        516
  53.1000        574
  53.2000        570
  53.3000        542
  53.4000        515
  53.5000        574
  53.6000        531
  53.7000        522
  53.8000        524
  53.9000        514
  54.0000        531
  54.1000        568
  54.2000        527
  54.3000        481
  54.4000        489
  54.5000        509
  54.6000        529
  54.7000        504
  54.8000        519
  54.9000        532
  55.0000        564
  55.1000        513
  55.2000        534
  55.3000        500
  55.4000        518
  55.5000        536
  55.6000        529
  55.7000        515
  55.8000        513
  55.9000        561
  56.0000        521
  56.1000        493
  56.2000        548
  56.3000        491
  56.4000        521
  56.5000        543
  56.6000        521
  56.7000        504
  56.8000        503
  56.9000        539
  57.0000        552
  57.1000        531
  57.2000        527
  57.3000        558
  57.4000        515
  57.5000        507
  57.6000        518
  57.7000        529
  57.8000        535
  57.9000        532
  58.0000        523
  58.1000        536
  58.2000        507
  58.3000        527
  58.4000        474
  58.5000        532
  58.6000        515
  58.7000        547
  58.8000        525
  58.9000        556
  59.0000        536
  59.1000        534
  59.2000        523
  59.3000        529
  59.4000        528
  59.5000        526
  59.6000        501
  59.7000        523
  59.8000        495
  59.9000        510
  60.0000        536
  60.1000        501
  60.2000        529
  60.3000        540
  60.4000        512
  60.5000        549
  60.6000        520
  60.7000        527
  60.8000        486
  60.9000        486
  61.0000        534
  61.1000        481
  61.2000        483
  61.3000        535
  61.4000        513
  61.5000        494
  61.6000        545
  61.7000        534
  61.8000        531
  61.9000        520
  62.0000        499
  62.1000        483
  62.2000        509
  62.3000        535
  62.4000        533
  62.5000        525
  62.6000        571
  62.7000        540
  62.8000        519
  62.9000        547
  63.0000        529
  63.1000        511
  63.2000        522
  63.3000        522
  63.4000        520
  63.5000        507
  63.6000        497
  63.7000        528
  63.8000        502
  63.9000        511
  64.0000        443
  64.1000        513
  64.2000        502
  64.3000        509
  64.4000        500
  64.5000        541
  64.6000        507
  64.7000        539
  64.8000        529
  64.9000        509
  65.0000        525
  65.1000        561
  65.2000        518
  65.3000        509
  65.4000        514
  65.5000        516
  65.6000        503
  65.7000        504
  65.8000        516
  65.9000        521
  66.0000        519
  66.1000        522
  66.2000        494
  66.3000        510
  66.4000        524
  66.5000        487
  66.6000        528
  66.7000        522
  66.8000        485
  66.9000        517
  67.0000        508
  67.1000        508
  67.2000        478
  67.3000        486
  67.4000        480
  67.5000        537
  67.6000        518
  67.7000        503
  67.8000        542
  67.9000        495
  68.0000        532
  68.1000        534
  68.2000        512
  68.3000        509
  68.4000        542
  68.5000        510
  68.6000        482
  68.7000        492
  68.8000        471
  68.9000        581
  69.0000        514
  69.1000        523
  69.2000        512
  69.3000        514
  69.4000        536
  69.5000        547
  69.6000        515
  69.7000        543
  69.8000        536
  69.9000        495
  70.0000        518
  70.1000        500
  70.2000        542
  70.3000        528
  70.4000        507
  70.5000        465
  70.6000        512
  70.7000        494
  70.8000        517
  70.9000        524
  71.0000        516
  71.1000        479
  71.2000        524
  71.3000        507
  71.4000        539
  71.5000        532
  71.6000        557
  71.7000        496
  71.8000        483
  71.9000        495
  72.0000        524
  72.1000        464
  72.2000        537
  72.3000        528
  72.4000        510
  72.5000        530
  72.6000        496
  72.7000        535
  72.8000        542
  72.9000        527
  73.0000        514
  73.1000        539
  73.2000        538
  73.3000        535
  73.4000        560
  73.5000        518
  73.6000        562
  73.7000        482
  73.8000        499
  73.9000        461
  74.0000        518
  74.1000        513
  74.2000        507
  74.3000        546
  74.4000        533
  74.5000        517
  74.6000        546
  74.7000        502
  74.8000        521
  74.9000        524
  75.0000        510
  75.1000        523
  75.2000        496
  75.3000        486
  75.4000        555
  75.5000        509
  75.6000        533
  75.7000        571
  75.8000        521
  75.9000        557
  76.0000        542
  76.1000        588
  76.2000        598
  76.3000        709
  76.4000        839
  76.5000        903
  76.6000        945
  76.7000       1050
  76.8000       1047
  76.9000       1057
  77.0000       1032
  77.1000        995
  77.2000        929
  77.3000        823
  77.4000        760
  77.5000        704
  77.6000        619
  77.7000        598
  77.8000        554
  77.9000        584
  78.0000        529
  78.1000        536
  78.2000        503
  78.3000        555
  78.4000        538
  78.5000        558
  78.6000        552
  78.7000        552
  78.8000        563
  78.9000        511
  79.0000        537
  79.1000        508
  79.2000        506
  79.3000        511
  79.4000        524
  79.5000        527
  79.6000        499
  79.7000        527
  79.8000        520
  79.9000        507
  80.0000        490
  80.1000        544
  80.2000        518
  80.3000        494
  80.4000        538
  80.5000        514
  80.6000        484
  80.7000        532
  80.8000        516
  80.9000        549
  81.0000        553
  81.1000        514
  81.2000        503
  81.3000        532
  81.4000        521
  81.5000        492
  81.6000        502
  81.7000        515
  81.8000        530
  81.9000        525
  82.0000        509
  82.1000        523
  82.2000        499
  82.3000        511
  82.4000        498
  82.5000        510
  82.6000        502
  82.7000        509
  82.8000        528
  82.9000        520
  83.0000        534
  83.1000        543
  83.2000        486
  83.3000        504
  83.4000        523
  83.5000        528
  83.6000        481
  83.7000        506
  83.8000        530
  83.9000        489
  84.0000        508
  84.1000        512
  84.2000        479
  84.3000        508
  84.4000        544
  84.5000        541
  84.6000        534
  84.7000        513
  84.8000        498
  84.9000        501
  85.0000        521
  85.1000        519
  85.2000        506
  85.3000        516
  85.4000        527
  85.5000        506
  85.6000        524
  85.7000        509
  85.8000        497
  85.9000        477
  86.0000        481
  86.1000        514
  86.2000        550
  86.3000        497
  86.4000        507
  86.5000        526
  86.6000        542
  86.7000        554
  86.8000        503
  86.9000        513
  87.0000        488
  87.1000        533
  87.2000        498
  87.3000        500
  87.4000        596
  87.5000        497
  87.6000        532
  87.7000        493
  87.8000        527
  87.9000        490
  88.0000        542
  88.1000        534
  88.2000        545
  88.3000        499
  88.4000        517
  88.5000        512
  88.6000        527
  88.7000        509
  88.8000        492
  88.9000        553
  89.0000        508
  89.1000        554
  89.2000        581
  89.3000        580
  89.4000        587
  89.5000        566
  89.6000        540
  89.7000        549
  89.8000        525
  89.9000        518
  90.0000        524
  90.1000        559
  90.2000        510
  90.3000        511
  90.4000        562
  90.5000        548
  90.6000        495
  90.7000        510
  90.8000        513
  90.9000        535
  91.0000        518
  91.1000        534
  91.2000        508
  91.3000        516
  91.4000        535
  91.5000        499
  91.6000        501
  91.7000        503
  91.8000        507
  91.9000        543
  92.0000        520
  92.1000        494
  92.2000        507
  92.3000        522
  92.4000        550
  92.5000        504
  92.6000        521
  92.7000        512
  92.8000        488
  92.9000        532
  93.0000        554
  93.1000        480
  93.2000        484
  93.3000        504
  93.4000        500
  93.5000        530
  93.6000        499
  93.7000        509
  93.8000        519
  93.9000        525
  94.0000        524
  94.1000        510
  94.2000        519
  94.3000        511
  94.4000        557
  94.5000        495
  94.6000        501
  94.7000        547
  94.8000        522
  94.9000        566
  95.0000        492
  95.1000        496
  95.2000        490
  95.3000        528
  95.4000        506
  95.5000        503
  95.6000        515
  95.7000        548
  95.8000        510
  95.9000        530
  96.0000        549
  96.1000        503
  96.2000        535
  96.3000        510
  96.4000        545
  96.5000        541
  96.6000        536
  96.7000        512
  96.8000        542
  96.9000        536
  97.0000        539
  97.1000        538
  97.2000        576
  97.3000        514
  97.4000        528
  97.5000        500
  97.6000        540
  97.7000        565
  97.8000        552
  97.9000        529
  98.0000        613
  98.1000        609
  98.2000        589
  98.3000        608
  98.4000        603
  98.5000        623
  98.6000        664
  98.7000        790
  98.8000        940
  98.9000       1022
  99.0000       1186
  99.1000       1261
  99.2000       1292
  99.3000       1382
  99.4000       1377
  99.5000       1281
  99.6000       1193
  99.7000       1080
  99.8000        897
  99.9000        783
 100.0000        762
 100.1000        613
 100.2000        624
 100.3000        554
 100.4000        628
 100.5000        570
 100.6000        521
 100.7000        544
 100.8000        513
 100.9000        554
 101.0000        531
 101.1000        536
 101.2000        515
 101.3000        532
 101.4000        579
 101.5000        536
 101.6000        546
 101.7000        526
 101.8000        518
 101.9000        507
 102.0000        516
 102.1000        538
 102.2000        538
 102.3000        530
 102.4000        507
 102.5000        526
 102.6000        520
 102.7000        520
 102.8000        511
 102.9000        534
 103.0000        558
 103.1000        525
 103.2000        503
 103.3000        506
 103.4000        532
 103.5000        512
 103.6000        525
 103.7000        526
 103.8000        489
 103.9000        514
 104.0000        501
 104.1000        483
 104.2000        512
 104.3000        498
 104.4000        519
 104.5000        524
 104.6000        535
 104.7000        528
 104.8000        521
 104.9000        531
 105.0000        504
 105.1000        541
 105.2000        502
 105.3000        556
 105.4000        531
 105.5000        515
 105.6000        498
 105.7000        489
 105.8000        455
 105.9000        543
 106.0000        538
 106.1000        473
 106.2000        497
 106.3000        518
 106.4000        530
 106.5000        499
 106.6000        531
 106.7000        528
 106.8000        541
 106.9000        517
 107.0000        519
 107.1000        513
 107.2000        499
 107.3000        509
 107.4000        525
 107.5000        528
 107.6000        525
 107.7000        493
 107.8000        540
 107.9000        534
 108.0000        516
 108.1000        536
 108.2000        520
 108.3000        519
 108.4000        520
 108.5000        508
 108.6000        496
 108.7000        495
 108.8000        521
 108.9000        555
 109.0000        517
 109.1000        492
 109.2000        512
 109.3000        500
 109.4000        529
 109.5000        481
 109.6000        533
 109.7000        471
 109.8000        537
 109.9000        506
 110.0000        512
 110.1000        513
 110.2000        516
 110.3000        521
 110.4000        521
 110.5000        518
 110.6000        552
 110.7000        525
 110.8000        496
 110.9000        521
 111.0000        548
 111.1000        531
 111.2000        518
 111.3000        539
 111.4000        566
 111.5000        534
 111.6000        532
 111.7000        528
 111.8000        545
 111.9000        551
 112.0000        530
 112.1000        460
 112.2000        521
 112.3000        492
 112.4000        496
 112.5000        543
 112.6000        520
 112.7000        506
 112.8000        498
 112.9000        519
 113.0000        489
 113.1000        522
 113.2000        540
 113.3000        519
 113.4000        532
 113.5000        516
 113.6000        503
 113.7000        514
 113.8000        506
 113.9000        490
 114.0000        514
 114.1000        544
 114.2000        504
 114.3000        525
 114.4000        465
 114.5000        497
 114.6000        506
 114.7000        489
 114.8000        506
 114.9000        524
 115.0000        479
 115.1000        481
 115.2000        495
 115.3000        509
 115.4000        520
 115.5000        500
 115.6000        494
 115.7000        537
 115.8000        542
 115.9000        541
 116.0000        509
 116.1000        519
 116.2000        496
 116.3000        534
 116.4000        497
 116.5000        501
 116.6000        525
 116.7000        486
 116.8000        531
 116.9000        556
 117.0000        522
 117.1000        518
 117.2000        545
 117.3000        520
 117.4000        505
 117.5000        514
 117.6000        479
 117.7000        518
 117.8000        551
 117.9000        498
 118.0000        555
 118.1000        483
 118.2000        487
 118.3000        505
 118.4000        529
 118.5000        523
 118.6000        500
 118.7000        506
 118.8000        537
 118.9000        506
 119.0000        497
 119.1000        569
 119.2000        489
 119.3000        532
 119.4000        496
 119.5000        499
 119.6000        539
 119.7000        517
 119.8000        486
 119.9000        523
 120.0000        494
 120.1000        519
 120.2000        488
 120.3000        497
 120.4000        484
 120.5000        512
 120.6000        502
 120.7000        492
 120.8000        496
 120.9000        541
 121.0000        524
 121.1000        541
 121.2000        545
 121.3000        537
 121.4000        549
 121.5000        505
 121.6000        541
 121.7000        571
 121.8000        497
 121.9000        494
 122.0000        553
 122.1000        540
 122.2000        549
 122.3000        543
 122.4000        542
 122.5000        533
 122.6000        537
 122.7000        507
 122.8000        530
 122.9000        576
 123.0000        594
 123.1000        592
 123.2000        576
 123.3000        619
 123.4000        608
 123.5000        591
 123.6000        591
 123.7000        589
 123.8000        533
 123.9000        532
 124.0000        600
 124.1000        551
 124.2000        524
 124.3000        539
 124.4000        523
 124.5000        532
 124.6000        506
 124.7000        518
 124.8000        537
 124.9000        473
 125.0000        492
 125.1000        541
 125.2000        533
 125.3000        505
 125.4000        535
 125.5000        514
 125.6000        515
 125.7000        545
 125.8000        502
 125.9000        528
 126.0000        511
 126.1000        507
 126.2000        508
 126.3000        528
 126.4000        481
 126.5000        521
 126.6000        511
 126.7000        513
 126.8000        564
 126.9000        553
 127.0000        562
 127.1000        511
 127.2000        512
 127.3000        510
 127.4000        511
 127.5000        513
[...]
 129.2000        346
 129.3000        338
 129.4000        299
 129.5000        351
 129.6000        328
 129.7000        319
 129.8000        309
 129.9000        369
 130.0000        324

; Data for range 53
_DRIVE = COUPLED
_STEPTIME = 0.2
_STEPSIZE = 0.1
_STEPMODE = C
_START = 40
_THETA = 20
_2THETA = 40
_KHI = 80
_PHI = 0
_X = 25
_Y = -25
_Z = 0
_DETECTOR = 1
; Detector type : Scintillation counter
_HV = 687
_GAIN = 80
_LLD = 0.69
_ULD = 1.866
_DETECTORSLIT = unkn
_AUX1 = 0
_AUX2 = 0
_AUX3 = 0
_TIMESTARTED = 1.028e+004
_TEMP_RATE = -1
_TEMP_DELAY = -1
_KV = 35
_MA = 40
_RANGE_WL = 1.78897
_3DPLANE = 0
_V4_ADDITIONALDETECTOR = 0
_V4_D8_DIBNUM = 1
_V4_DETECTORNAME = "Detector 1"
_V4_TTLDETECTOR = None
_V4_DETECTORTYPE = 1
_V4_DETECTORFLAGS = 524545
_V4_DETECTORHV = 687
_V4_DETECTORGAIN = 80
_V4_DETECTORLLD1 = 0.69
_V4_DETECTORWW1 = 1.176
_V4_DETECTORLLD2 = 0
_V4_DETECTORWW2 = 0
_V4_DETECTORPS = 0
_V4_DETECTORDT = 0
_V4_DETECTORPILEUPTIME = 0
_V4_COUNTERS_MASK = 1
_V4_DRIVES_MASK = 0
_V4_ENCODERS_MASK = 0
_2THETACOUNTS = 1
; 2THETA  Cnt1_D1
  40.0000        188
  40.1000        162
  40.2000        165
  40.3000        165
  40.4000        176
  40.5000        145
  40.6000        150
  40.7000        184
  40.8000        170
  40.9000        145
  41.0000        181
  41.1000        172
  41.2000        153
  41.3000        168
  41.4000        156
  41.5000        156
  41.6000        182
  41.7000        154
  41.8000        170
  41.9000        156
  42.0000        155
  42.1000        170
  42.2000        158
  42.3000        168
  42.4000        170
  42.5000        161
  42.6000        150
  42.7000        179
  42.8000        179
  42.9000        194
  43.0000        198
  43.1000        238
  43.2000        251
  43.3000        226
  43.4000        265
  43.5000        262
  43.6000        263
  43.7000        258
  43.8000        231
  43.9000        243
  44.0000        198
  44.1000        208
  44.2000        184
  44.3000        164
  44.4000        172
  44.5000        186
  44.6000        171
  44.7000        174
  44.8000        151
  44.9000        174
  45.0000        200
  45.1000        195
  45.2000        165
  45.3000        187
  45.4000        165
  45.5000        181
  45.6000        183
  45.7000        187
  45.8000        154
  45.9000        158
  46.0000        179
  46.1000        195
  46.2000        176
  46.3000        169
  46.4000        192
  46.5000        178
  46.6000        205
  46.7000        178
  46.8000        190
  46.9000        177
  47.0000        172
  47.1000        178
  47.2000        169
  47.3000        174
  47.4000        204
  47.5000        169
  47.6000        163
  47.7000        174
  47.8000        165
  47.9000        180
  48.0000        173
  48.1000        194
  48.2000        196
  48.3000        186
  48.4000        182
  48.5000        173
  48.6000        199
  48.7000        187
  48.8000        183
  48.9000        160
  49.0000        175
  49.1000        198
  49.2000        198
  49.3000        191
  49.4000        187
  49.5000        168
  49.6000        203
  49.7000        191
  49.8000        220
  49.9000        179
  50.0000        198
  50.1000        192
  50.2000        204
  50.3000        207
  50.4000        220
  50.5000        229
  50.6000        265
  50.7000        234
  50.8000        224
  50.9000        261
  51.0000        251
  51.1000        253
  51.2000        275
  51.3000        285
  51.4000        342
  51.5000        363
  51.6000        412
  51.7000        432
  51.8000        516
  51.9000        550
  52.0000        614
  52.1000        621
  52.2000        660
  52.3000        658
  52.4000        579
  52.5000        583
  52.6000        588
  52.7000        580
  52.8000        542
  52.9000        452
  53.0000        425
  53.1000        363
  53.2000        321
  53.3000        301
  53.4000        267
  53.5000        238
  53.6000        213
  53.7000        207
  53.8000        208
  53.9000        213
  54.0000        183
  54.1000        226
  54.2000        182
  54.3000        219
  54.4000        182
  54.5000        225
  54.6000        196
  54.7000        216
  54.8000        200
  54.9000        217
  55.0000        171
  55.1000        209
  55.2000        159
  55.3000        188
  55.4000        197
  55.5000        216
  55.6000        214
  55.7000        210
  55.8000        201
  55.9000        188
  56.0000        188
  56.1000        221
  56.2000        188
  56.3000        207
  56.4000        185
  56.5000        193
  56.6000        206
  56.7000        223
  56.8000        200
  56.9000        195
  57.0000        190
  57.1000        209
  57.2000        185
  57.3000        202
  57.4000        177
  57.5000        192
  57.6000        195
  57.7000        203
  57.8000        192
  57.9000        233
  58.0000        196
  58.1000        214
  58.2000        191
  58.3000        194
  58.4000        212
  58.5000        204
  58.6000        196
  58.7000        171
  58.8000        190
  58.9000        180
  59.0000        207
  59.1000        221
  59.2000        231
  59.3000        228
  59.4000        215
  59.5000        197
  59.6000        208
  59.7000        206
  59.8000        223
  59.9000        198
  60.0000        217
  60.1000        212
  60.2000        193
  60.3000        191
  60.4000        235
  60.5000        203
  60.6000        198
  60.7000        208
  60.8000        186
  60.9000        231
  61.0000        226
  61.1000        225
  61.2000        187
  61.3000        206
  61.4000        204
  61.5000        210
  61.6000        236
  61.7000        233
  61.8000        205
  61.9000        221
  62.0000        192
  62.1000        193
  62.2000        209
  62.3000        192
  62.4000        241
  62.5000        209
  62.6000        219
  62.7000        202
  62.8000        215
  62.9000        191
  63.0000        222
  63.1000        210
  63.2000        206
  63.3000        208
  63.4000        182
  63.5000        202
  63.6000        231
  63.7000        201
  63.8000        208
  63.9000        201
  64.0000        217
  64.1000        216
  64.2000        231
  64.3000        246
  64.4000        209
  64.5000        201
  64.6000        204
  64.7000        214
  64.8000        209
  64.9000        180
  65.0000        209
  65.1000        216
  65.2000        180
  65.3000        226
  65.4000        197
  65.5000        197
  65.6000        233
  65.7000        205
  65.8000        235
  65.9000        208
  66.0000        221
  66.1000        201
  66.2000        230
  66.3000        226
  66.4000        207
  66.5000        201
  66.6000        201
  66.7000        173
  66.8000        233
  66.9000        214
  67.0000        203
  67.1000        230
  67.2000        211
  67.3000        224
  67.4000        225
  67.5000        215
  67.6000        220
  67.7000        239
  67.8000        239
  67.9000        218
  68.0000        222
  68.1000        229
  68.2000        232
  68.3000        197
  68.4000        229
  68.5000        219
  68.6000        222
  68.7000        219
  68.8000        215
  68.9000        234
  69.0000        230
  69.1000        208
  69.2000        203
  69.3000        222
  69.4000        225
  69.5000        238
  69.6000        225
  69.7000        250
  69.8000        236
  69.9000        215
  70.0000        255
  70.1000        218
  70.2000        210
  70.3000        213
  70.4000        221
  70.5000        222
  70.6000        220
  70.7000        215
  70.8000        274
  70.9000        231
  71.0000        247
  71.1000        200
  71.2000        231
  71.3000        218
  71.4000        221
  71.5000        224
  71.6000        255
  71.7000        230
  71.8000        238
  71.9000        255
  72.0000        227
  72.1000        231
  72.2000        250
  72.3000        227
  72.4000        229
  72.5000        246
  72.6000        212
  72.7000        228
  72.8000        231
  72.9000        249
  73.0000        223
  73.1000        227
  73.2000        228
  73.3000        260
  73.4000        218
  73.5000        259
  73.6000        221
  73.7000        262
  73.8000        241
  73.9000        233
  74.0000        233
  74.1000        245
  74.2000        230
  74.3000        255
  74.4000        239
  74.5000        239
  74.6000        239
  74.7000        255
  74.8000        251
  74.9000        285
  75.0000        236
  75.1000        246
  75.2000        254
  75.3000        233
  75.4000        234
  75.5000        235
  75.6000        267
  75.7000        219
  75.8000        260
  75.9000        234
  76.0000        258
  76.1000        246
  76.2000        262
  76.3000        249
  76.4000        289
  76.5000        295
  76.6000        304
  76.7000        327
  76.8000        296
  76.9000        351
  77.0000        342
  77.1000        330
  77.2000        306
  77.3000        294
  77.4000        314
  77.5000        292
  77.6000        339
  77.7000        312
  77.8000        294
  77.9000        266
  78.0000        286
  78.1000        277
  78.2000        295
  78.3000        264
  78.4000        239
  78.5000        233
  78.6000        225
  78.7000        228
  78.8000        234
  78.9000        250
  79.0000        269
  79.1000        226
  79.2000        266
  79.3000        238
  79.4000        211
  79.5000        216
  79.6000        254
  79.7000        265
  79.8000        258
  79.9000        249
  80.0000        268
  80.1000        288
  80.2000        271
  80.3000        241
  80.4000        245
  80.5000        243
  80.6000        246
  80.7000        239
  80.8000        241
  80.9000        229
  81.0000        242
  81.1000        258
  81.2000        225
  81.3000        263
  81.4000        258
  81.5000        243
  81.6000        229
  81.7000        246
  81.8000        242
  81.9000        265
  82.0000        240
  82.1000        248
  82.2000        291
  82.3000        277
  82.4000        253
  82.5000        237
  82.6000        243
  82.7000        242
  82.8000        255
  82.9000        270
  83.0000        254
  83.1000        236
  83.2000        260
  83.3000        269
  83.4000        265
  83.5000        253
  83.6000        261
  83.7000        281
  83.8000        235
  83.9000        241
  84.0000        244
  84.1000        251
  84.2000        274
  84.3000        266
  84.4000        263
  84.5000        271
  84.6000        279
  84.7000        274
  84.8000        279
  84.9000        269
  85.0000        239
  85.1000        256
  85.2000        278
  85.3000        302
  85.4000        259
  85.5000        278
  85.6000        292
  85.7000        266
  85.8000        280
  85.9000        285
  86.0000        290
  86.1000        255
  86.2000        272
  86.3000        233
  86.4000        287
  86.5000        252
  86.6000        247
  86.7000        255
  86.8000        288
  86.9000        276
  87.0000        269
  87.1000        255
  87.2000        299
  87.3000        282
  87.4000        279
  87.5000        256
  87.6000        269
  87.7000        282
  87.8000        258
  87.9000        287
  88.0000        262
  88.1000        292
  88.2000        288
  88.3000        259
  88.4000        294
  88.5000        262
  88.6000        265
  88.7000        297
  88.8000        276
  88.9000        297
  89.0000        289
  89.1000        282
  89.2000        245
  89.3000        274
  89.4000        270
  89.5000        299
  89.6000        278
  89.7000        262
  89.8000        271
  89.9000        263
  90.0000        248
  90.1000        288
  90.2000        241
  90.3000        277
  90.4000        306
  90.5000        273
  90.6000        271
  90.7000        327
  90.8000        303
  90.9000        279
  91.0000        283
  91.1000        271
  91.2000        259
  91.3000        294
  91.4000        290
  91.5000        287
  91.6000        271
  91.7000        297
  91.8000        281
  91.9000        291
  92.0000        300
  92.1000        275
  92.2000        273
  92.3000        269
  92.4000        297
  92.5000        299
  92.6000        266
  92.7000        275
  92.8000        286
  92.9000        277
  93.0000        269
  93.1000        288
  93.2000        318
  93.3000        303
  93.4000        304
  93.5000        279
  93.6000        285
  93.7000        266
  93.8000        276
  93.9000        294
  94.0000        298
  94.1000        292
  94.2000        250
  94.3000        277
  94.4000        288
  94.5000        301
  94.6000        266
  94.7000        349
  94.8000        276
  94.9000        268
  95.0000        299
  95.1000        287
  95.2000        283
  95.3000        287
  95.4000        308
  95.5000        298
  95.6000        325
  95.7000        301
  95.8000        314
  95.9000        296
  96.0000        305
  96.1000        306
  96.2000        316
  96.3000        309
  96.4000        294
  96.5000        320
  96.6000        300
  96.7000        334
  96.8000        333
  96.9000        301
  97.0000        293
  97.1000        310
  97.2000        306
  97.3000        295
  97.4000        319
  97.5000        315
  97.6000        312
  97.7000        331
  97.8000        332
  97.9000        344
  98.0000        325
  98.1000        354
  98.2000        325
  98.3000        332
  98.4000        380
  98.5000        414
  98.6000        387
  98.7000        419
  98.8000        391
  98.9000        449
  99.0000        489
  99.1000        474
  99.2000        459
  99.3000        499
  99.4000        434
  99.5000        487
  99.6000        469
  99.7000        405
  99.8000        428
  99.9000        411
 100.0000        394
 100.1000        362
 100.2000        362
 100.3000        334
 100.4000        323
 100.5000        340
 100.6000        370
 100.7000        299
 100.8000        306
 100.9000        298
 101.0000        330
 101.1000        322
 101.2000        313
 101.3000        328
 101.4000        337
 101.5000        325
 101.6000        311
 101.7000        310
 101.8000        286
 101.9000        295
 102.0000        335
 102.1000        313
 102.2000        344
 102.3000        311
 102.4000        316
 102.5000        343
 102.6000        285
 102.7000        324
 102.8000        317
 102.9000        355
 103.0000        310
 103.1000        306
 103.2000        330
 103.3000        324
 103.4000        304
 103.5000        285
 103.6000        344
 103.7000        309
 103.8000        323
 103.9000        320
 104.0000        304
 104.1000        333
 104.2000        323
 104.3000        305
 104.4000        320
 104.5000        339
 104.6000        336
 104.7000        338
 104.8000        326
 104.9000        287
 105.0000        296
 105.1000        323
 105.2000        322
 105.3000        347
 105.4000        307
 105.5000        343
 105.6000        330
 105.7000        309
 105.8000        343
 105.9000        327
 106.0000        342
 106.1000        326
 106.2000        335
 106.3000        356
 106.4000        349
 106.5000        341
 106.6000        324
 106.7000        323
 106.8000        356
 106.9000        347
 107.0000        334
 107.1000        365
 107.2000        348
 107.3000        312
 107.4000        300
 107.5000        316
 107.6000        360
 107.7000        315
 107.8000        316
 107.9000        306
 108.0000        319
 108.1000        347
 108.2000        334
 108.3000        336
 108.4000        324
 108.5000        340
 108.6000        319
 108.7000        334
 108.8000        325
 108.9000        316
 109.0000        288
 109.1000        336
 109.2000        357
 109.3000        290
 109.4000        343
 109.5000        329
 109.6000        367
 109.7000        352
 109.8000        328
 109.9000        320
 110.0000        322
 110.1000        330
 110.2000        358
 110.3000        330
 110.4000        328
 110.5000        326
 110.6000        357
 110.7000        354
 110.8000        341
 110.9000        325
 111.0000        312
 111.1000        333
 111.2000        316
 111.3000        341
 111.4000        337
 111.5000        327
 111.6000        345
 111.7000        345
 111.8000        352
 111.9000        337
 112.0000        353
 112.1000        362
 112.2000        367
 112.3000        296
 112.4000        330
 112.5000        330
 112.6000        318
 112.7000        338
 112.8000        336
 112.9000        308
 113.0000        315
 113.1000        368
 113.2000        366
 113.3000        361
 113.4000        372
 113.5000        323
 113.6000        367
 113.7000        338
 113.8000        313
 113.9000        377
 114.0000        326
 114.1000        355
 114.2000        348
 114.3000        364
 114.4000        342
 114.5000        343
 114.6000        308
 114.7000        328
 114.8000        371
 114.9000        316
 115.0000        333
 115.1000        348
 115.2000        356
 115.3000        361
 115.4000        371
 115.5000        334
 115.6000        355
 115.7000        380
 115.8000        349
 115.9000        332
 116.0000        347
 116.1000        328
 116.2000        349
 116.3000        319
 116.4000        391
 116.5000        329
 116.6000        354
 116.7000        327
 116.8000        380
 116.9000        373
 117.0000        340
 117.1000        330
 117.2000        346
 117.3000        321
 117.4000        358
 117.5000        364
 117.6000        346
 117.7000        356
 117.8000        355
 117.9000        334
 118.0000        370
 118.1000        329
 118.2000        357
 118.3000        361
 118.4000        358
 118.5000        362
 118.6000        332
 118.7000        339
 118.8000        323
 118.9000        339
 119.0000        368
 119.1000        379
 119.2000        373
 119.3000        356
 119.4000        367
 119.5000        376
 119.6000        343
 119.7000        339
 119.8000        373
 119.9000        348
 120.0000        350
 120.1000        323
 120.2000        368
 120.3000        349
 120.4000        357
 120.5000        367
 120.6000        369
 120.7000        349
 120.8000        366
 120.9000        329
 121.0000        343
 121.1000        393
 121.2000        326
 121.3000        363
 121.4000        357
 121.5000        369
 121.6000        365
 121.7000        368
 121.8000        389
 121.9000        368
 122.0000        391
 122.1000        389
 122.2000        407
 122.3000        413
 122.4000        427
 122.5000        424
 122.6000        406
 122.7000        390
 122.8000        451
 122.9000        387
 123.0000        438
 123.1000        401
 123.2000        407
 123.3000        415
 123.4000        400
 123.5000        470
 123.6000        403
 123.7000        399
 123.8000        402
 123.9000        400
 124.0000        423
 124.1000        405
 124.2000        372
 124.3000        381
 124.4000        387
 124.5000        340
 124.6000        376
 124.7000        349
 124.8000        370
 124.9000        376
 125.0000        371
 125.1000        359
 125.2000        371
 125.3000        362
 125.4000        327
 125.5000        326
 125.6000        363
 125.7000        344
 125.8000        369
 125.9000        340
 126.0000        355
 126.1000        370
 126.2000        375
 126.3000        335
 126.4000        354
 126.5000        363
 126.6000        374
 126.7000        381
 126.8000        365
 126.9000        353
 127.0000        343
 127.1000        353
 127.2000        373
 127.3000        363
 127.4000        327
 127.5000        363
 127.6000        384
 127.7000        355
 127.8000        325
 127.9000        330
 128.0000        338
 128.1000        338
 128.2000        337
 128.3000        320
 128.4000        347
 128.5000        315
 128.6000        346
 128.7000        353
 128.8000        359
 128.9000        332
 129.0000        366
 129.1000        344
 129.2000        356
 129.3000        345
 129.4000        335
 129.5000        342
 129.6000        363
 129.7000        352
 129.8000        364
 129.9000        347
 130.0000        362