File: exp_dat/old/exp_2013_11_11/23pct_-30G.uxd
; (content of file C:\DIFFDAT1\GIFT\MDL\Seawoong Lee\20131104_MV8\equal_area_maxkhi080_n8_2th40_130_x00y25_-30g.raw)
_FILEVERSION = 3
_SAMPLE =
_+SAMPLE =
_SITE = Korea
_USER = Admin
_GONIOMETER_CODE = 20
; Goniometer : D8 theta/2theta, stage : Unknown
_SAMPLE_CHANGER_CODE = 0
_ATTACHMENTS_CODE = 0
_GONIOMETER_RADIUS = 300
_FIXED_DIVSLIT = 1
_FIXED_SAMPLESLIT = 0
_SOLLER_SLITS = 2
_FIXED_DETSLIT = 0.1
_MONOCHROMATOR = 0
; Incident beam monochromator : None
_SOLLER_SLITS_2 = 2
_THIN_FILM = N
_BETA_FILTER = Y
_FIXED_ANTISLIT = 0.6
_ANALYZER_CODE = 0
; Received beam analyzer : None
_DATEMEASURED = "08-Nov-2013 03:14:11"
_WL_UNIT = A
_WL1 = 1.78897
_WL2 = 1.79285
_WL3 = 1.62079
_WLRATIO = 0.5
_ANODE = Co
_V4_INF_CREATOR = XRDWizard
_V4_INF_CREATOR_VERSION = V2.9.0.22
_V4_INF_WIZARD_VERSION = V2.9.0.22
_V4_INF_WIZARD_ADDINS = V2.9.0.22
_V4_INF_WIZARD_DOCTYPE = XRD
_V4_INF_OSUSER = Postech
_V4_INF_USER = Admin
_V4_INF_SITE = Korea

; Data for range 1
_DRIVE = COUPLED
_STEPTIME = 0.2
_STEPSIZE = 0.1
_STEPMODE = C
_START = 40
_THETA = 20
_2THETA = 40
_KHI = 0
_PHI = 0
_X = 0
_Y = 25
_Z = 0
_DETECTOR = 1
; Detector type : Scintillation counter
_HV = 687
_GAIN = 80
_LLD = 0.69
_ULD = 1.866
_DETECTORSLIT = unkn
_AUX1 = 0
_AUX2 = 0
_AUX3 = 0
_TIMESTARTED = 28
_TEMP_RATE = -1
_TEMP_DELAY = -1
_KV = 35
_MA = 40
_RANGE_WL = 1.78897
_3DPLANE = 0
_V4_ADDITIONALDETECTOR = 0
_V4_D8_DIBNUM = 1
_V4_DETECTORNAME = "Detector 1"
_V4_TTLDETECTOR = None
_V4_DETECTORTYPE = 1
_V4_DETECTORFLAGS = 524545
_V4_DETECTORHV = 687
_V4_DETECTORGAIN = 80
_V4_DETECTORLLD1 = 0.69
_V4_DETECTORWW1 = 1.176
_V4_DETECTORLLD2 = 0
_V4_DETECTORWW2 = 0
_V4_DETECTORPS = 0
_V4_DETECTORDT = 0
_V4_DETECTORPILEUPTIME = 0
_V4_COUNTERS_MASK = 1
_V4_DRIVES_MASK = 0
_V4_ENCODERS_MASK = 0
_2THETACOUNTS = 1
; 2THETA  Cnt1_D1
  40.0000        454
  40.1000        450
  40.2000        459
  40.3000        427
  40.4000        401
  40.5000        470
  40.6000        434
  40.7000        478
  40.8000        443
  40.9000        459
  41.0000        480
  41.1000        459
  41.2000        481
  41.3000        443
  41.4000        504
  41.5000        440
  41.6000        443
  41.7000        455
  41.8000        422
  41.9000        480
  42.0000        432
  42.1000        458
  42.2000        465
  42.3000        436
  42.4000        496
  42.5000        458
  42.6000        464
  42.7000        494
  42.8000        462
  42.9000        449
  43.0000        469
  43.1000        472
  43.2000        453
  43.3000        482
  43.4000        463
  43.5000        419
  43.6000        494
  43.7000        417
  43.8000        461
  43.9000        488
  44.0000        455
  44.1000        462
  44.2000        466
  44.3000        441
  44.4000        490
  44.5000        446
  44.6000        444
  44.7000        432
  44.8000        458
  44.9000        464
  45.0000        452
  45.1000        444
  45.2000        498
  45.3000        479
  45.4000        478
  45.5000        424
  45.6000        464
  45.7000        463
  45.8000        453
  45.9000        468
  46.0000        514
  46.1000        442
  46.2000        452
  46.3000        484
  46.4000        477
  46.5000        476
  46.6000        514
  46.7000        474
  46.8000        463
  46.9000        468
  47.0000        517
  47.1000        459
  47.2000        463
  47.3000        496
  47.4000        466
  47.5000        451
  47.6000        452
  47.7000        493
  47.8000        458
  47.9000        480
  48.0000        494
  48.1000        476
  48.2000        477
  48.3000        488
  48.4000        513
  48.5000        490
  48.6000        532
  48.7000        449
  48.8000        509
  48.9000        478
  49.0000        511
  49.1000        468
  49.2000        509
  49.3000        514
  49.4000        476
  49.5000        497
  49.6000        502
  49.7000        497
  49.8000        490
  49.9000        466
  50.0000        477
  50.1000        474
  50.2000        504
  50.3000        488
  50.4000        518
  50.5000        536
  50.6000        504
  50.7000        462
  50.8000        507
  50.9000        484
  51.0000        494
  51.1000        537
  51.2000        483
  51.3000        541
  51.4000        554
  51.5000        593
  51.6000        661
  51.7000        851
  51.8000        915
  51.9000       1031
  52.0000       1083
  52.1000       1162
  52.2000       1091
  52.3000       1124
  52.4000       1049
  52.5000        961
  52.6000        842
  52.7000        696
  52.8000        645
  52.9000        550
  53.0000        514
  53.1000        564
  53.2000        545
  53.3000        488
  53.4000        508
  53.5000        485
  53.6000        499
  53.7000        479
  53.8000        508
  53.9000        497
  54.0000        520
  54.1000        492
  54.2000        515
  54.3000        462
  54.4000        531
  54.5000        456
  54.6000        477
  54.7000        490
  54.8000        445
  54.9000        520
  55.0000        490
  55.1000        506
  55.2000        520
  55.3000        533
  55.4000        479
  55.5000        462
  55.6000        503
  55.7000        503
  55.8000        518
  55.9000        490
  56.0000        532
  56.1000        488
  56.2000        532
  56.3000        500
  56.4000        496
  56.5000        502
  56.6000        485
  56.7000        532
  56.8000        546
  56.9000        432
  57.0000        516
  57.1000        540
  57.2000        505
  57.3000        520
  57.4000        538
  57.5000        538
  57.6000        489
  57.7000        521
  57.8000        551
  57.9000        527
  58.0000        532
  58.1000        501
  58.2000        518
  58.3000        502
  58.4000        473
  58.5000        490
  58.6000        502
  58.7000        513
  58.8000        536
  58.9000        530
  59.0000        515
  59.1000        491
  59.2000        505
  59.3000        537
  59.4000        510
  59.5000        511
  59.6000        520
  59.7000        516
  59.8000        528
  59.9000        517
  60.0000        463
  60.1000        499
  60.2000        510
  60.3000        519
  60.4000        511
  60.5000        508
  60.6000        524
  60.7000        523
  60.8000        531
  60.9000        533
  61.0000        493
  61.1000        481
  61.2000        483
  61.3000        534
  61.4000        497
  61.5000        508
  61.6000        492
  61.7000        489
  61.8000        513
  61.9000        509
  62.0000        518
  62.1000        553
  62.2000        497
  62.3000        515
  62.4000        497
  62.5000        507
  62.6000        548
  62.7000        442
  62.8000        470
  62.9000        492
  63.0000        501
  63.1000        510
  63.2000        521
  63.3000        482
  63.4000        503
  63.5000        503
  63.6000        495
  63.7000        467
  63.8000        501
  63.9000        568
  64.0000        521
  64.1000        512
  64.2000        478
  64.3000        491
  64.4000        510
  64.5000        501
  64.6000        548
  64.7000        493
  64.8000        519
  64.9000        548
  65.0000        500
  65.1000        543
  65.2000        523
  65.3000        507
  65.4000        527
  65.5000        521
  65.6000        503
  65.7000        527
  65.8000        542
  65.9000        541
  66.0000        503
  66.1000        508
  66.2000        493
  66.3000        516
  66.4000        471
  66.5000        505
  66.6000        491
  66.7000        504
  66.8000        510
  66.9000        510
  67.0000        531
  67.1000        538
  67.2000        525
  67.3000        496
  67.4000        571
  67.5000        532
  67.6000        508
  67.7000        500
  67.8000        547
  67.9000        483
  68.0000        508
  68.1000        545
  68.2000        468
  68.3000        489
  68.4000        482
  68.5000        488
  68.6000        488
  68.7000        532
  68.8000        518
  68.9000        542
  69.0000        515
  69.1000        506
  69.2000        497
  69.3000        513
  69.4000        534
  69.5000        493
  69.6000        525
  69.7000        497
  69.8000        537
  69.9000        500
  70.0000        486
  70.1000        501
  70.2000        492
  70.3000        512
  70.4000        492
  70.5000        535
  70.6000        512
  70.7000        478
  70.8000        512
  70.9000        513
  71.0000        526
  71.1000        534
  71.2000        464
  71.3000        566
  71.4000        536
  71.5000        518
  71.6000        480
  71.7000        492
  71.8000        511
  71.9000        492
  72.0000        498
  72.1000        493
  72.2000        503
  72.3000        509
  72.4000        517
  72.5000        506
  72.6000        525
  72.7000        525
  72.8000        524
  72.9000        511
  73.0000        499
  73.1000        517
  73.2000        522
  73.3000        506
  73.4000        506
  73.5000        494
  73.6000        511
  73.7000        522
  73.8000        491
  73.9000        524
  74.0000        499
  74.1000        526
  74.2000        523
  74.3000        511
  74.4000        484
  74.5000        517
  74.6000        542
  74.7000        511
  74.8000        545
  74.9000        522
  75.0000        521
  75.1000        546
  75.2000        512
  75.3000        522
  75.4000        520
  75.5000        531
  75.6000        550
  75.7000        599
  75.8000        543
  75.9000        580
  76.0000        680
  76.1000        726
  76.2000        809
  76.3000        928
  76.4000       1048
  76.5000       1140
  76.6000       1319
  76.7000       1324
  76.8000       1298
  76.9000       1283
  77.0000       1299
  77.1000       1193
  77.2000       1017
  77.3000        914
  77.4000        839
  77.5000        729
  77.6000        650
  77.7000        624
  77.8000        602
  77.9000        620
  78.0000        541
  78.1000        560
  78.2000        521
  78.3000        528
  78.4000        511
  78.5000        555
  78.6000        491
  78.7000        518
  78.8000        492
  78.9000        487
  79.0000        516
  79.1000        515
  79.2000        495
  79.3000        504
  79.4000        527
  79.5000        496
  79.6000        550
  79.7000        491
  79.8000        513
  79.9000        534
  80.0000        476
  80.1000        511
  80.2000        513
  80.3000        494
  80.4000        509
  80.5000        527
  80.6000        497
  80.7000        490
  80.8000        468
  80.9000        455
  81.0000        537
  81.1000        525
  81.2000        531
  81.3000        474
  81.4000        523
  81.5000        553
  81.6000        499
  81.7000        479
  81.8000        504
  81.9000        493
  82.0000        456
  82.1000        501
  82.2000        548
  82.3000        485
  82.4000        541
  82.5000        469
  82.6000        497
  82.7000        509
  82.8000        542
  82.9000        509
  83.0000        541
  83.1000        468
  83.2000        511
  83.3000        525
  83.4000        505
  83.5000        496
  83.6000        507
  83.7000        485
  83.8000        497
  83.9000        525
  84.0000        490
  84.1000        499
  84.2000        502
  84.3000        492
  84.4000        496
  84.5000        510
  84.6000        499
  84.7000        573
  84.8000        493
  84.9000        494
  85.0000        526
  85.1000        493
  85.2000        485
  85.3000        483
  85.4000        494
  85.5000        469
  85.6000        562
  85.7000        494
  85.8000        501
  85.9000        495
  86.0000        523
  86.1000        516
  86.2000        508
  86.3000        498
  86.4000        485
  86.5000        497
  86.6000        490
  86.7000        534
  86.8000        500
  86.9000        528
  87.0000        500
  87.1000        508
  87.2000        477
  87.3000        506
  87.4000        484
  87.5000        453
  87.6000        488
  87.7000        486
  87.8000        460
  87.9000        537
  88.0000        491
  88.1000        537
  88.2000        492
  88.3000        497
  88.4000        504
  88.5000        521
  88.6000        495
  88.7000        510
  88.8000        500
  88.9000        508
  89.0000        522
  89.1000        538
  89.2000        496
  89.3000        516
  89.4000        505
  89.5000        496
  89.6000        521
  89.7000        528
  89.8000        512
  89.9000        472
  90.0000        510
  90.1000        486
  90.2000        505
  90.3000        524
  90.4000        502
  90.5000        493
  90.6000        532
  90.7000        502
  90.8000        509
  90.9000        492
  91.0000        528
  91.1000        444
  91.2000        489
  91.3000        520
  91.4000        510
  91.5000        505
  91.6000        510
  91.7000        520
  91.8000        506
  91.9000        512
  92.0000        522
  92.1000        555
  92.2000        501
  92.3000        525
  92.4000        491
  92.5000        506
  92.6000        479
  92.7000        503
  92.8000        478
  92.9000        547
  93.0000        495
  93.1000        486
  93.2000        523
  93.3000        497
  93.4000        500
  93.5000        506
  93.6000        545
  93.7000        496
  93.8000        511
  93.9000        502
  94.0000        512
  94.1000        494
  94.2000        515
  94.3000        507
  94.4000        473
  94.5000        492
  94.6000        554
  94.7000        526
  94.8000        511
  94.9000        509
  95.0000        494
  95.1000        478
  95.2000        529
  95.3000        556
  95.4000        472
  95.5000        554
  95.6000        510
  95.7000        523
  95.8000        514
  95.9000        521
  96.0000        524
  96.1000        515
  96.2000        525
  96.3000        498
  96.4000        463
  96.5000        492
  96.6000        493
  96.7000        499
  96.8000        541
  96.9000        536
  97.0000        530
  97.1000        508
  97.2000        505
  97.3000        544
  97.4000        515
  97.5000        508
  97.6000        520
  97.7000        523
  97.8000        551
  97.9000        554
  98.0000        598
  98.1000        553
  98.2000        608
  98.3000        656
  98.4000        718
  98.5000        794
  98.6000        921
  98.7000       1015
  98.8000       1216
  98.9000       1235
  99.0000       1527
  99.1000       1612
  99.2000       1604
  99.3000       1660
  99.4000       1625
  99.5000       1521
  99.6000       1329
  99.7000       1213
  99.8000       1060
  99.9000        965
 100.0000        790
 100.1000        670
 100.2000        646
 100.3000        657
 100.4000        652
 100.5000        578
 100.6000        567
 100.7000        576
 100.8000        549
 100.9000        558
 101.0000        543
 101.1000        514
 101.2000        528
 101.3000        504
 101.4000        539
 101.5000        487
 101.6000        506
 101.7000        528
 101.8000        536
 101.9000        495
 102.0000        543
 102.1000        524
 102.2000        492
 102.3000        487
 102.4000        508
 102.5000        562
 102.6000        542
 102.7000        509
 102.8000        507
 102.9000        531
 103.0000        534
 103.1000        487
 103.2000        503
 103.3000        479
 103.4000        500
 103.5000        538
 103.6000        542
 103.7000        476
 103.8000        530
 103.9000        500
 104.0000        531
 104.1000        490
 104.2000        510
 104.3000        487
 104.4000        508
 104.5000        489
 104.6000        547
 104.7000        517
 104.8000        499
 104.9000        511
 105.0000        506
 105.1000        545
 105.2000        505
 105.3000        518
 105.4000        509
 105.5000        494
 105.6000        502
 105.7000        485
 105.8000        496
 105.9000        514
 106.0000        511
 106.1000        537
 106.2000        526
 106.3000        503
 106.4000        556
 106.5000        538
 106.6000        499
 106.7000        534
 106.8000        507
 106.9000        537
 107.0000        525
 107.1000        496
 107.2000        511
 107.3000        502
 107.4000        516
 107.5000        481
 107.6000        525
 107.7000        506
 107.8000        451
 107.9000        563
 108.0000        538
 108.1000        485
 108.2000        567
 108.3000        498
 108.4000        518
 108.5000        491
 108.6000        508
 108.7000        506
 108.8000        487
 108.9000        470
 109.0000        508
 109.1000        469
 109.2000        507
 109.3000        534
 109.4000        515
 109.5000        492
 109.6000        521
 109.7000        478
 109.8000        505
 109.9000        480
 110.0000        475
 110.1000        495
 110.2000        500
 110.3000        516
 110.4000        473
 110.5000        534
 110.6000        537
 110.7000        481
 110.8000        550
 110.9000        498
 111.0000        537
 111.1000        459
 111.2000        498
 111.3000        484
 111.4000        499
 111.5000        489
 111.6000        504
 111.7000        548
 111.8000        514
 111.9000        554
 112.0000        535
 112.1000        527
 112.2000        548
 112.3000        513
 112.4000        483
 112.5000        533
 112.6000        512
 112.7000        508
 112.8000        569
 112.9000        502
 113.0000        463
 113.1000        480
 113.2000        503
 113.3000        497
 113.4000        501
 113.5000        539
 113.6000        494
 113.7000        526
 113.8000        493
 113.9000        525
 114.0000        464
 114.1000        494
 114.2000        504
 114.3000        506
 114.4000        516
 114.5000        495
 114.6000        534
 114.7000        487
 114.8000        515
 114.9000        509
 115.0000        507
 115.1000        516
 115.2000        474
 115.3000        507
 115.4000        505
 115.5000        513
 115.6000        499
 115.7000        533
 115.8000        514
 115.9000        471
 116.0000        499
 116.1000        511
 116.2000        506
 116.3000        528
 116.4000        491
 116.5000        515
 116.6000        540
 116.7000        516
 116.8000        490
 116.9000        491
 117.0000        487
 117.1000        514
 117.2000        536
 117.3000        512
 117.4000        539
 117.5000        493
 117.6000        532
 117.7000        539
 117.8000        504
 117.9000        452
 118.0000        539
 118.1000        511
 118.2000        525
 118.3000        529
 118.4000        517
 118.5000        519
 118.6000        513
 118.7000        506
 118.8000        481
 118.9000        524
 119.0000        475
 119.1000        504
 119.2000        503
 119.3000        491
 119.4000        482
 119.5000        522
 119.6000        526
 119.7000        495
 119.8000        468
 119.9000        528
 120.0000        486
 120.1000        521
 120.2000        529
 120.3000        504
 120.4000        517
 120.5000        479
 120.6000        498
 120.7000        557
 120.8000        515
 120.9000        523
 121.0000        505
 121.1000        543
 121.2000        514
 121.3000        526
 121.4000        511
 121.5000        504
 121.6000        480
 121.7000        537
 121.8000        485
 121.9000        517
 122.0000        560
 122.1000        545
 122.2000        483
 122.3000        543
 122.4000        546
 122.5000        502
 122.6000        542
 122.7000        535
 122.8000        519
 122.9000        578
 123.0000        558
 123.1000        522
 123.2000        536
 123.3000        567
 123.4000        547
 123.5000        574
 123.6000        574
 123.7000        546
 123.8000        548
 123.9000        523
 124.0000        512
 124.1000        499
 124.2000        493
 124.3000        565
 124.4000        533
 124.5000        511
 124.6000        519
 124.7000        514
 124.8000        517
 124.9000        523
 125.0000        507
 125.1000        497
 125.2000        501
 125.3000        525
 125.4000        483
 125.5000        476
 125.6000        466
 125.7000        554
 125.8000        540
 125.9000        499
 126.0000        532
 126.1000        524
 126.2000        499
 126.3000        552
 126.4000        503
 126.5000        478
 126.6000        493
 126.7000        544
 126.8000        559
 126.9000        514
 127.0000        496
 127.1000        523
 127.2000        527
 127.3000        568
 127.4000        535
 127.5000        531
 127.6000        497
 127.7000        485
 127.8000        488
 127.9000        538
 128.0000        444
 128.1000        490
 128.2000        531
 128.3000        560
 128.4000        486
 128.5000        542
 128.6000        532
 128.7000        528
 128.8000        540
 128.9000        501
 129.0000        512
 129.1000        516
 129.2000        489
 129.3000        495
 129.4000        486
 129.5000        527
 129.6000        525
 129.7000        488
 129.8000        508
 129.9000        500
 130.0000        471

; Data for range 2
_DRIVE = COUPLED
_STEPTIME = 0.2
_STEPSIZE = 0.1
_STEPMODE = C
_START = 40
_THETA = 20
_2THETA = 40
_KHI = 10.5
_PHI = 60
_X = 0
_Y = 25
_Z = 0
_DETECTOR = 1
; Detector type : Scintillation counter
_HV = 687
_GAIN = 80
_LLD = 0.69
_ULD = 1.866
_DETECTORSLIT = unkn
_AUX1 = 0
_AUX2 = 0
_AUX3 = 0
_TIMESTARTED = 225
_TEMP_RATE = -1
_TEMP_DELAY = -1
_KV = 35
_MA = 40
_RANGE_WL = 1.78897
_3DPLANE = 0
_V4_ADDITIONALDETECTOR = 0
_V4_D8_DIBNUM = 1
_V4_DETECTORNAME = "Detector 1"
_V4_TTLDETECTOR = None
_V4_DETECTORTYPE = 1
_V4_DETECTORFLAGS = 524545
_V4_DETECTORHV = 687
_V4_DETECTORGAIN = 80
_V4_DETECTORLLD1 = 0.69
_V4_DETECTORWW1 = 1.176
_V4_DETECTORLLD2 = 0
_V4_DETECTORWW2 = 0
_V4_DETECTORPS = 0
_V4_DETECTORDT = 0
_V4_DETECTORPILEUPTIME = 0
_V4_COUNTERS_MASK = 1
_V4_DRIVES_MASK = 0
_V4_ENCODERS_MASK = 0
_2THETACOUNTS = 1
; 2THETA  Cnt1_D1
  40.0000        557
  40.1000        533
  40.2000        505
  40.3000        535
  40.4000        489
  40.5000        483
  40.6000        534
  40.7000        492
  40.8000        502
  40.9000        514
  41.0000        519
  41.1000        564
  41.2000        560
  41.3000        540
  41.4000        538
  41.5000        484
  41.6000        521
  41.7000        520
  41.8000        507
  41.9000        527
  42.0000        514
  42.1000        554
  42.2000        529
  42.3000        543
  42.4000        536
  42.5000        534
  42.6000        553
  42.7000        525
  42.8000        521
  42.9000        501
  43.0000        526
  43.1000        520
  43.2000        514
  43.3000        549
  43.4000        500
  43.5000        554
  43.6000        516
  43.7000        497
  43.8000        550
  43.9000        491
  44.0000        530
  44.1000        525
  44.2000        543
  44.3000        544
  44.4000        529
  44.5000        530
  44.6000        543
  44.7000        518
  44.8000        562
  44.9000        520
  45.0000        495
  45.1000        523
  45.2000        565
  45.3000        523
  45.4000        509
  45.5000        546
  45.6000        532
  45.7000        537
  45.8000        572
  45.9000        520
  46.0000        510
  46.1000        525
  46.2000        476
  46.3000        499
  46.4000        493
  46.5000        497
  46.6000        530
  46.7000        534
  46.8000        532
  46.9000        476
  47.0000        538
  47.1000        545
  47.2000        586
  47.3000        532
  47.4000        548
  47.5000        480
  47.6000        529
  47.7000        507
  47.8000        528
  47.9000        529
  48.0000        505
  48.1000        561
  48.2000        492
  48.3000        486
  48.4000        564
  48.5000        504
  48.6000        535
  48.7000        558
  48.8000        547
  48.9000        511
  49.0000        560
  49.1000        514
  49.2000        504
  49.3000        534
  49.4000        539
  49.5000        526
  49.6000        478
  49.7000        504
  49.8000        518
  49.9000        513
  50.0000        535
  50.1000        489
  50.2000        514
  50.3000        541
  50.4000        546
  50.5000        538
  50.6000        526
  50.7000        516
  50.8000        529
  50.9000        507
  51.0000        567
  51.1000        553
  51.2000        552
  51.3000        607
  51.4000        613
  51.5000        631
  51.6000        794
  51.7000       1034
  51.8000       1228
  51.9000       1326
  52.0000       1420
  52.1000       1430
  52.2000       1450
  52.3000       1499
  52.4000       1292
  52.5000       1143
  52.6000        986
  52.7000        811
  52.8000        625
  52.9000        612
  53.0000        541
  53.1000        573
  53.2000        533
  53.3000        544
  53.4000        543
  53.5000        501
  53.6000        518
  53.7000        497
  53.8000        552
  53.9000        524
  54.0000        497
  54.1000        500
  54.2000        503
  54.3000        507
  54.4000        472
  54.5000        537
  54.6000        535
  54.7000        507
  54.8000        506
  54.9000        570
  55.0000        537
  55.1000        499
  55.2000        534
  55.3000        496
  55.4000        486
  55.5000        505
  55.6000        535
  55.7000        493
  55.8000        477
  55.9000        505
  56.0000        545
  56.1000        535
  56.2000        545
  56.3000        512
  56.4000        507
  56.5000        505
  56.6000        498
  56.7000        534
  56.8000        510
  56.9000        508
  57.0000        511
  57.1000        544
  57.2000        576
  57.3000        549
  57.4000        507
  57.5000        509
  57.6000        567
  57.7000        513
  57.8000        466
  57.9000        516
  58.0000        537
  58.1000        503
  58.2000        477
  58.3000        512
  58.4000        500
  58.5000        494
  58.6000        486
  58.7000        492
  58.8000        534
  58.9000        475
  59.0000        545
  59.1000        513
  59.2000        514
  59.3000        533
  59.4000        488
  59.5000        540
  59.6000        486
  59.7000        488
  59.8000        508
  59.9000        496
  60.0000        552
  60.1000        529
  60.2000        502
  60.3000        547
  60.4000        511
  60.5000        479
  60.6000        532
  60.7000        545
  60.8000        506
  60.9000        507
  61.0000        486
  61.1000        517
  61.2000        504
  61.3000        535
  61.4000        507
  61.5000        477
  61.6000        501
  61.7000        518
  61.8000        508
  61.9000        471
  62.0000        489
  62.1000        505
  62.2000        521
  62.3000        517
  62.4000        516
  62.5000        507
  62.6000        507
  62.7000        507
  62.8000        498
  62.9000        482
  63.0000        517
  63.1000        502
  63.2000        536
  63.3000        502
  63.4000        504
  63.5000        501
  63.6000        561
  63.7000        481
  63.8000        515
  63.9000        532
  64.0000        529
  64.1000        482
  64.2000        527
  64.3000        492
  64.4000        506
  64.5000        476
  64.6000        515
  64.7000        541
  64.8000        547
  64.9000        511
  65.0000        518
  65.1000        495
  65.2000        492
  65.3000        532
  65.4000        525
  65.5000        506
  65.6000        544
  65.7000        497
  65.8000        512
  65.9000        549
  66.0000        561
  66.1000        496
  66.2000        510
  66.3000        535
  66.4000        532
  66.5000        526
  66.6000        491
  66.7000        494
  66.8000        523
  66.9000        517
  67.0000        497
  67.1000        490
  67.2000        509
  67.3000        528
  67.4000        515
  67.5000        512
  67.6000        537
  67.7000        485
  67.8000        503
  67.9000        503
  68.0000        529
  68.1000        497
  68.2000        498
  68.3000        520
  68.4000        454
  68.5000        492
  68.6000        544
  68.7000        478
  68.8000        537
  68.9000        492
  69.0000        505
  69.1000        512
  69.2000        488
  69.3000        530
  69.4000        524
  69.5000        514
  69.6000        527
  69.7000        489
  69.8000        513
  69.9000        535
  70.0000        510
  70.1000        525
  70.2000        490
  70.3000        523
  70.4000        524
  70.5000        467
  70.6000        538
  70.7000        527
  70.8000        485
  70.9000        501
  71.0000        497
  71.1000        545
  71.2000        535
  71.3000        521
  71.4000        499
  71.5000        516
  71.6000        462
  71.7000        482
  71.8000        464
  71.9000        488
  72.0000        504
  72.1000        514
  72.2000        464
  72.3000        476
  72.4000        532
  72.5000        482
  72.6000        515
  72.7000        497
  72.8000        492
  72.9000        521
  73.0000        537
  73.1000        495
  73.2000        516
  73.3000        447
  73.4000        523
  73.5000        459
  73.6000        517
  73.7000        500
  73.8000        494
  73.9000        466
  74.0000        519
  74.1000        511
  74.2000        479
  74.3000        497
  74.4000        495
  74.5000        513
  74.6000        506
  74.7000        555
  74.8000        524
  74.9000        489
  75.0000        524
  75.1000        517
  75.2000        516
  75.3000        483
  75.4000        538
  75.5000        521
  75.6000        516
  75.7000        525
  75.8000        506
  75.9000        560
  76.0000        533
  76.1000        567
  76.2000        559
  76.3000        586
  76.4000        611
  76.5000        664
  76.6000        721
  76.7000        673
  76.8000        721
  76.9000        701
  77.0000        705
  77.1000        659
  77.2000        633
  77.3000        636
  77.4000        604
  77.5000        600
  77.6000        526
  77.7000        489
  77.8000        497
  77.9000        520
  78.0000        505
  78.1000        501
  78.2000        533
  78.3000        525
  78.4000        519
  78.5000        525
  78.6000        487
  78.7000        529
  78.8000        456
  78.9000        539
  79.0000        506
  79.1000        531
  79.2000        497
  79.3000        512
  79.4000        519
  79.5000        508
  79.6000        494
  79.7000        514
  79.8000        506
  79.9000        487
  80.0000        496
  80.1000        507
  80.2000        525
  80.3000        520
  80.4000        496
  80.5000        499
  80.6000        481
  80.7000        478
  80.8000        507
  80.9000        499
  81.0000        484
  81.1000        536
  81.2000        504
  81.3000        512
  81.4000        547
  81.5000        510
  81.6000        471
  81.7000        497
  81.8000        544
  81.9000        509
  82.0000        496
  82.1000        531
  82.2000        456
  82.3000        477
  82.4000        491
  82.5000        492
  82.6000        500
  82.7000        530
  82.8000        517
  82.9000        487
  83.0000        459
  83.1000        475
  83.2000        529
  83.3000        465
  83.4000        549
  83.5000        508
  83.6000        513
  83.7000        501
  83.8000        501
  83.9000        477
  84.0000        481
  84.1000        528
  84.2000        490
  84.3000        494
  84.4000        500
  84.5000        508
  84.6000        479
  84.7000        523
  84.8000        528
  84.9000        515
  85.0000        490
  85.1000        511
  85.2000        547
  85.3000        498
  85.4000        503
  85.5000        535
  85.6000        528
  85.7000        480
  85.8000        541
  85.9000        516
  86.0000        543
  86.1000        478
  86.2000        494
  86.3000        505
  86.4000        533
  86.5000        471
  86.6000        506
  86.7000        502
  86.8000        488
  86.9000        522
  87.0000        496
  87.1000        504
  87.2000        514
  87.3000        503
  87.4000        527
  87.5000        485
  87.6000        535
  87.7000        472
  87.8000        527
  87.9000        507
  88.0000        486
  88.1000        489
  88.2000        497
  88.3000        536
  88.4000        504
  88.5000        510
  88.6000        482
  88.7000        524
  88.8000        519
  88.9000        495
  89.0000        485
  89.1000        540
  89.2000        489
  89.3000        541
  89.4000        483
  89.5000        485
  89.6000        498
  89.7000        496
  89.8000        476
  89.9000        505
  90.0000        532
  90.1000        517
  90.2000        492
  90.3000        501
  90.4000        514
  90.5000        540
  90.6000        525
  90.7000        469
  90.8000        500
  90.9000        513
  91.0000        532
  91.1000        525
  91.2000        528
  91.3000        510
  91.4000        544
  91.5000        489
  91.6000        572
  91.7000        548
  91.8000        470
  91.9000        494
  92.0000        490
  92.1000        479
  92.2000        493
  92.3000        510
  92.4000        514
  92.5000        499
  92.6000        506
  92.7000        507
  92.8000        509
  92.9000        529
  93.0000        508
  93.1000        502
  93.2000        487
  93.3000        512
  93.4000        492
  93.5000        507
  93.6000        513
  93.7000        484
  93.8000        500
  93.9000        495
  94.0000        493
  94.1000        522
  94.2000        476
  94.3000        479
  94.4000        499
  94.5000        495
  94.6000        496
  94.7000        489
  94.8000        497
  94.9000        507
  95.0000        500
  95.1000        472
  95.2000        541
  95.3000        517
  95.4000        501
  95.5000        533
  95.6000        514
  95.7000        518
  95.8000        513
  95.9000        470
  96.0000        498
  96.1000        471
  96.2000        524
  96.3000        463
  96.4000        487
  96.5000        517
  96.6000        507
  96.7000        480
  96.8000        553
  96.9000        481
  97.0000        504
  97.1000        506
  97.2000        534
  97.3000        508
  97.4000        464
  97.5000        503
  97.6000        507
  97.7000        513
  97.8000        522
  97.9000        535
  98.0000        536
  98.1000        549
  98.2000        566
  98.3000        578
  98.4000        586
  98.5000        590
  98.6000        643
  98.7000        711
  98.8000        721
  98.9000        835
  99.0000        875
  99.1000        930
  99.2000        888
  99.3000        900
  99.4000        932
  99.5000        859
  99.6000        848
  99.7000        848
  99.8000        707
  99.9000        717
 100.0000        634
 100.1000        610
 100.2000        589
 100.3000        539
 100.4000        572
 100.5000        532
 100.6000        538
 100.7000        525
 100.8000        502
 100.9000        514
 101.0000        508
 101.1000        513
 101.2000        525
 101.3000        508
 101.4000        534
 101.5000        542
 101.6000        510
 101.7000        503
 101.8000        531
 101.9000        551
 102.0000        530
 102.1000        476
 102.2000        518
 102.3000        485
 102.4000        492
 102.5000        530
 102.6000        546
 102.7000        505
 102.8000        529
 102.9000        532
 103.0000        486
 103.1000        500
 103.2000        467
 103.3000        522
 103.4000        497
 103.5000        542
 103.6000        491
 103.7000        501
 103.8000        531
 103.9000        549
 104.0000        510
 104.1000        517
 104.2000        511
 104.3000        558
 104.4000        511
 104.5000        501
 104.6000        480
 104.7000        537
 104.8000        519
 104.9000        503
 105.0000        516
 105.1000        514
 105.2000        494
 105.3000        514
 105.4000        498
 105.5000        521
 105.6000        534
 105.7000        571
 105.8000        488
 105.9000        480
 106.0000        461
 106.1000        516
 106.2000        514
 106.3000        517
 106.4000        547
 106.5000        489
 106.6000        518
 106.7000        500
 106.8000        503
 106.9000        498
 107.0000        488
 107.1000        511
 107.2000        516
 107.3000        521
 107.4000        541
 107.5000        513
 107.6000        499
 107.7000        580
 107.8000        483
 107.9000        515
 108.0000        530
 108.1000        519
 108.2000        549
 108.3000        531
 108.4000        501
 108.5000        520
 108.6000        513
 108.7000        520
 108.8000        526
 108.9000        504
 109.0000        495
 109.1000        500
 109.2000        492
 109.3000        523
 109.4000        520
 109.5000        509
 109.6000        505
 109.7000        477
 109.8000        498
 109.9000        475
 110.0000        481
 110.1000        458
 110.2000        503
 110.3000        508
 110.4000        538
 110.5000        523
 110.6000        529
 110.7000        515
 110.8000        545
 110.9000        528
 111.0000        540
 111.1000        493
 111.2000        510
 111.3000        495
 111.4000        503
 111.5000        521
 111.6000        504
 111.7000        536
 111.8000        518
 111.9000        549
 112.0000        505
 112.1000        516
 112.2000        513
 112.3000        501
 112.4000        554
 112.5000        477
 112.6000        476
 112.7000        509
 112.8000        464
 112.9000        490
 113.0000        524
 113.1000        506
 113.2000        513
 113.3000        438
 113.4000        489
 113.5000        520
 113.6000        530
 113.7000        512
 113.8000        543
 113.9000        554
 114.0000        512
 114.1000        514
 114.2000        501
 114.3000        504
 114.4000        538
 114.5000        515
 114.6000        497
 114.7000        528
 114.8000        512
 114.9000        524
 115.0000        539
 115.1000        483
 115.2000        537
 115.3000        518
 115.4000        512
 115.5000        521
 115.6000        547
 115.7000        480
 115.8000        509
 115.9000        507
 116.0000        486
 116.1000        511
 116.2000        477
 116.3000        507
 116.4000        521
 116.5000        488
 116.6000        530
 116.7000        555
 116.8000        519
 116.9000        491
 117.0000        473
 117.1000        549
 117.2000        445
 117.3000        498
 117.4000        502
 117.5000        508
 117.6000        487
 117.7000        549
 117.8000        493
 117.9000        526
 118.0000        458
 118.1000        541
 118.2000        530
 118.3000        497
 118.4000        497
 118.5000        493
 118.6000        491
 118.7000        502
 118.8000        525
 118.9000        501
 119.0000        487
 119.1000        483
 119.2000        503
 119.3000        556
 119.4000        508
 119.5000        501
 119.6000        510
 119.7000        492
 119.8000        522
 119.9000        527
 120.0000        528
 120.1000        503
 120.2000        472
 120.3000        503
 120.4000        494
 120.5000        471
 120.6000        476
 120.7000        522
 120.8000        511
 120.9000        526
 121.0000        509
 121.1000        498
 121.2000        515
 121.3000        518
 121.4000        531
 121.5000        513
 121.6000        537
 121.7000        508
 121.8000        530
 121.9000        490
 122.0000        502
 122.1000        491
 122.2000        514
 122.3000        526
 122.4000        522
 122.5000        545
 122.6000        489
 122.7000        547
 122.8000        559
 122.9000        569
 123.0000        509
 123.1000        580
 123.2000        565
 123.3000        555
 123.4000        572
 123.5000        562
 123.6000        563
 123.7000        567
 123.8000        546
 123.9000        521
 124.0000        534
 124.1000        548
 124.2000        525
 124.3000        530
 124.4000        548
 124.5000        517
 124.6000        509
 124.7000        566
 124.8000        509
 124.9000        536
 125.0000        520
 125.1000        508
 125.2000        505
 125.3000        508
 125.4000        497
 125.5000        514
 125.6000        520
 125.7000        521
 125.8000        524
 125.9000        523
 126.0000        544
 126.1000        478
 126.2000        483
 126.3000        484
 126.4000        484
 126.5000        541
 126.6000        473
 126.7000        484
 126.8000        465
 126.9000        515
 127.0000        492
 127.1000        515
 127.2000        465
 127.3000        532
 127.4000        465
 127.5000        503
 127.6000        465
[...]
 129.1000        436
 129.2000        411
 129.3000        416
 129.4000        413
 129.5000        437
 129.6000        442
 129.7000        388
 129.8000        432
 129.9000        428
 130.0000        414

; Data for range 53
_DRIVE = COUPLED
_STEPTIME = 0.2
_STEPSIZE = 0.1
_STEPMODE = C
_START = 40
_THETA = 20
_2THETA = 40
_KHI = 80
_PHI = 0
_X = 0
_Y = 25
_Z = 0
_DETECTOR = 1
; Detector type : Scintillation counter
_HV = 687
_GAIN = 80
_LLD = 0.69
_ULD = 1.866
_DETECTORSLIT = unkn
_AUX1 = 0
_AUX2 = 0
_AUX3 = 0
_TIMESTARTED = 1.029e+004
_TEMP_RATE = -1
_TEMP_DELAY = -1
_KV = 35
_MA = 40
_RANGE_WL = 1.78897
_3DPLANE = 0
_V4_ADDITIONALDETECTOR = 0
_V4_D8_DIBNUM = 1
_V4_DETECTORNAME = "Detector 1"
_V4_TTLDETECTOR = None
_V4_DETECTORTYPE = 1
_V4_DETECTORFLAGS = 524545
_V4_DETECTORHV = 687
_V4_DETECTORGAIN = 80
_V4_DETECTORLLD1 = 0.69
_V4_DETECTORWW1 = 1.176
_V4_DETECTORLLD2 = 0
_V4_DETECTORWW2 = 0
_V4_DETECTORPS = 0
_V4_DETECTORDT = 0
_V4_DETECTORPILEUPTIME = 0
_V4_COUNTERS_MASK = 1
_V4_DRIVES_MASK = 0
_V4_ENCODERS_MASK = 0
_2THETACOUNTS = 1
; 2THETA  Cnt1_D1
  40.0000        156
  40.1000        177
  40.2000        158
  40.3000        130
  40.4000        185
  40.5000        148
  40.6000        157
  40.7000        172
  40.8000        183
  40.9000        184
  41.0000        181
  41.1000        177
  41.2000        156
  41.3000        151
  41.4000        195
  41.5000        148
  41.6000        173
  41.7000        154
  41.8000        175
  41.9000        165
  42.0000        155
  42.1000        170
  42.2000        172
  42.3000        167
  42.4000        189
  42.5000        158
  42.6000        192
  42.7000        227
  42.8000        238
  42.9000        281
  43.0000        237
  43.1000        246
  43.2000        281
  43.3000        229
  43.4000        256
  43.5000        212
  43.6000        216
  43.7000        210
  43.8000        207
  43.9000        187
  44.0000        220
  44.1000        187
  44.2000        169
  44.3000        167
  44.4000        157
  44.5000        171
  44.6000        162
  44.7000        172
  44.8000        187
  44.9000        162
  45.0000        171
  45.1000        184
  45.2000        172
  45.3000        139
  45.4000        180
  45.5000        158
  45.6000        187
  45.7000        176
  45.8000        152
  45.9000        173
  46.0000        173
  46.1000        158
  46.2000        162
  46.3000        178
  46.4000        176
  46.5000        150
  46.6000        179
  46.7000        197
  46.8000        182
  46.9000        168
  47.0000        174
  47.1000        137
  47.2000        163
  47.3000        171
  47.4000        176
  47.5000        181
  47.6000        155
  47.7000        172
  47.8000        166
  47.9000        182
  48.0000        184
  48.1000        170
  48.2000        175
  48.3000        169
  48.4000        183
  48.5000        196
  48.6000        181
  48.7000        169
  48.8000        175
  48.9000        160
  49.0000        159
  49.1000        167
  49.2000        167
  49.3000        180
  49.4000        173
  49.5000        186
  49.6000        202
  49.7000        206
  49.8000        224
  49.9000        205
  50.0000        235
  50.1000        225
  50.2000        233
  50.3000        239
  50.4000        229
  50.5000        201
  50.6000        208
  50.7000        232
  50.8000        234
  50.9000        216
  51.0000        222
  51.1000        237
  51.2000        203
  51.3000        231
  51.4000        250
  51.5000        317
  51.6000        341
  51.7000        396
  51.8000        515
  51.9000        546
  52.0000        629
  52.1000        744
  52.2000        820
  52.3000        863
  52.4000        838
  52.5000        890
  52.6000        853
  52.7000        755
  52.8000        727
  52.9000        678
  53.0000        612
  53.1000        520
  53.2000        440
  53.3000        389
  53.4000        362
  53.5000        270
  53.6000        258
  53.7000        213
  53.8000        195
  53.9000        202
  54.0000        191
  54.1000        185
  54.2000        205
  54.3000        190
  54.4000        181
  54.5000        173
  54.6000        196
  54.7000        203
  54.8000        163
  54.9000        213
  55.0000        189
  55.1000        172
  55.2000        199
  55.3000        165
  55.4000        173
  55.5000        182
  55.6000        185
  55.7000        190
  55.8000        173
  55.9000        207
  56.0000        182
  56.1000        169
  56.2000        174
  56.3000        198
  56.4000        219
  56.5000        183
  56.6000        205
  56.7000        188
  56.8000        177
  56.9000        198
  57.0000        205
  57.1000        216
  57.2000        215
  57.3000        219
  57.4000        179
  57.5000        178
  57.6000        220
  57.7000        187
  57.8000        185
  57.9000        203
  58.0000        202
  58.1000        190
  58.2000        188
  58.3000        192
  58.4000        167
  58.5000        179
  58.6000        175
  58.7000        173
  58.8000        200
  58.9000        227
  59.0000        193
  59.1000        194
  59.2000        184
  59.3000        240
  59.4000        209
  59.5000        189
  59.6000        201
  59.7000        189
  59.8000        188
  59.9000        209
  60.0000        194
  60.1000        180
  60.2000        218
  60.3000        182
  60.4000        183
  60.5000        204
  60.6000        206
  60.7000        197
  60.8000        221
  60.9000        181
  61.0000        204
  61.1000        206
  61.2000        223
  61.3000        218
  61.4000        186
  61.5000        213
  61.6000        204
  61.7000        201
  61.8000        179
  61.9000        175
  62.0000        191
  62.1000        187
  62.2000        216
  62.3000        182
  62.4000        190
  62.5000        196
  62.6000        195
  62.7000        206
  62.8000        201
  62.9000        197
  63.0000        221
  63.1000        175
  63.2000        215
  63.3000        206
  63.4000        194
  63.5000        192
  63.6000        199
  63.7000        179
  63.8000        209
  63.9000        211
  64.0000        224
  64.1000        214
  64.2000        212
  64.3000        180
  64.4000        209
  64.5000        217
  64.6000        202
  64.7000        215
  64.8000        185
  64.9000        202
  65.0000        217
  65.1000        196
  65.2000        206
  65.3000        214
  65.4000        216
  65.5000        209
  65.6000        217
  65.7000        204
  65.8000        211
  65.9000        209
  66.0000        199
  66.1000        191
  66.2000        223
  66.3000        231
  66.4000        195
  66.5000        215
  66.6000        223
  66.7000        211
  66.8000        192
  66.9000        204
  67.0000        211
  67.1000        204
  67.2000        183
  67.3000        218
  67.4000        196
  67.5000        213
  67.6000        229
  67.7000        199
  67.8000        206
  67.9000        220
  68.0000        193
  68.1000        221
  68.2000        224
  68.3000        229
  68.4000        215
  68.5000        204
  68.6000        226
  68.7000        215
  68.8000        199
  68.9000        233
  69.0000        201
  69.1000        195
  69.2000        231
  69.3000        223
  69.4000        213
  69.5000        244
  69.6000        234
  69.7000        203
  69.8000        208
  69.9000        210
  70.0000        226
  70.1000        212
  70.2000        217
  70.3000        220
  70.4000        236
  70.5000        213
  70.6000        221
  70.7000        246
  70.8000        228
  70.9000        236
  71.0000        248
  71.1000        209
  71.2000        230
  71.3000        218
  71.4000        239
  71.5000        209
  71.6000        213
  71.7000        199
  71.8000        205
  71.9000        219
  72.0000        213
  72.1000        237
  72.2000        218
  72.3000        223
  72.4000        215
  72.5000        178
  72.6000        228
  72.7000        233
  72.8000        211
  72.9000        200
  73.0000        199
  73.1000        235
  73.2000        237
  73.3000        211
  73.4000        219
  73.5000        210
  73.6000        233
  73.7000        248
  73.8000        229
  73.9000        207
  74.0000        217
  74.1000        226
  74.2000        236
  74.3000        235
  74.4000        250
  74.5000        230
  74.6000        233
  74.7000        220
  74.8000        220
  74.9000        229
  75.0000        228
  75.1000        256
  75.2000        245
  75.3000        224
  75.4000        233
  75.5000        238
  75.6000        232
  75.7000        218
  75.8000        236
  75.9000        257
  76.0000        221
  76.1000        248
  76.2000        229
  76.3000        245
  76.4000        238
  76.5000        270
  76.6000        246
  76.7000        267
  76.8000        280
  76.9000        273
  77.0000        278
  77.1000        271
  77.2000        274
  77.3000        278
  77.4000        277
  77.5000        255
  77.6000        282
  77.7000        277
  77.8000        272
  77.9000        285
  78.0000        299
  78.1000        265
  78.2000        259
  78.3000        225
  78.4000        218
  78.5000        267
  78.6000        266
  78.7000        232
  78.8000        237
  78.9000        228
  79.0000        238
  79.1000        225
  79.2000        246
  79.3000        247
  79.4000        232
  79.5000        233
  79.6000        231
  79.7000        226
  79.8000        222
  79.9000        233
  80.0000        215
  80.1000        269
  80.2000        250
  80.3000        246
  80.4000        234
  80.5000        240
  80.6000        228
  80.7000        236
  80.8000        219
  80.9000        255
  81.0000        250
  81.1000        226
  81.2000        277
  81.3000        251
  81.4000        246
  81.5000        247
  81.6000        226
  81.7000        229
  81.8000        234
  81.9000        236
  82.0000        236
  82.1000        241
  82.2000        225
  82.3000        228
  82.4000        258
  82.5000        245
  82.6000        247
  82.7000        271
  82.8000        290
  82.9000        231
  83.0000        214
  83.1000        254
  83.2000        249
  83.3000        262
  83.4000        223
  83.5000        240
  83.6000        228
  83.7000        229
  83.8000        265
  83.9000        253
  84.0000        281
  84.1000        266
  84.2000        266
  84.3000        233
  84.4000        235
  84.5000        236
  84.6000        263
  84.7000        247
  84.8000        234
  84.9000        242
  85.0000        261
  85.1000        266
  85.2000        265
  85.3000        250
  85.4000        263
  85.5000        274
  85.6000        215
  85.7000        234
  85.8000        265
  85.9000        234
  86.0000        265
  86.1000        232
  86.2000        249
  86.3000        259
  86.4000        276
  86.5000        265
  86.6000        238
  86.7000        271
  86.8000        272
  86.9000        253
  87.0000        242
  87.1000        275
  87.2000        248
  87.3000        235
  87.4000        266
  87.5000        259
  87.6000        245
  87.7000        273
  87.8000        252
  87.9000        278
  88.0000        252
  88.1000        254
  88.2000        273
  88.3000        240
  88.4000        284
  88.5000        264
  88.6000        245
  88.7000        241
  88.8000        272
  88.9000        269
  89.0000        250
  89.1000        266
  89.2000        276
  89.3000        265
  89.4000        253
  89.5000        262
  89.6000        262
  89.7000        281
  89.8000        284
  89.9000        261
  90.0000        261
  90.1000        264
  90.2000        278
  90.3000        239
  90.4000        229
  90.5000        300
  90.6000        282
  90.7000        271
  90.8000        288
  90.9000        266
  91.0000        293
  91.1000        270
  91.2000        259
  91.3000        273
  91.4000        287
  91.5000        292
  91.6000        273
  91.7000        281
  91.8000        251
  91.9000        281
  92.0000        267
  92.1000        255
  92.2000        262
  92.3000        272
  92.4000        293
  92.5000        299
  92.6000        246
  92.7000        253
  92.8000        277
  92.9000        285
  93.0000        274
  93.1000        299
  93.2000        310
  93.3000        295
  93.4000        274
  93.5000        242
  93.6000        256
  93.7000        297
  93.8000        264
  93.9000        281
  94.0000        313
  94.1000        296
  94.2000        275
  94.3000        266
  94.4000        270
  94.5000        268
  94.6000        293
  94.7000        281
  94.8000        306
  94.9000        300
  95.0000        228
  95.1000        290
  95.2000        290
  95.3000        261
  95.4000        308
  95.5000        259
  95.6000        303
  95.7000        283
  95.8000        290
  95.9000        274
  96.0000        266
  96.1000        263
  96.2000        312
  96.3000        304
  96.4000        278
  96.5000        306
  96.6000        302
  96.7000        307
  96.8000        308
  96.9000        328
  97.0000        273
  97.1000        290
  97.2000        270
  97.3000        278
  97.4000        295
  97.5000        311
  97.6000        324
  97.7000        297
  97.8000        323
  97.9000        313
  98.0000        342
  98.1000        329
  98.2000        345
  98.3000        359
  98.4000        348
  98.5000        386
  98.6000        419
  98.7000        431
  98.8000        523
  98.9000        451
  99.0000        517
  99.1000        527
  99.2000        565
  99.3000        545
  99.4000        512
  99.5000        507
  99.6000        516
  99.7000        485
  99.8000        490
  99.9000        530
 100.0000        489
 100.1000        425
 100.2000        406
 100.3000        422
 100.4000        407
 100.5000        376
 100.6000        340
 100.7000        358
 100.8000        323
 100.9000        339
 101.0000        329
 101.1000        322
 101.2000        287
 101.3000        301
 101.4000        334
 101.5000        340
 101.6000        319
 101.7000        312
 101.8000        309
 101.9000        326
 102.0000        311
 102.1000        316
 102.2000        294
 102.3000        336
 102.4000        297
 102.5000        330
 102.6000        287
 102.7000        301
 102.8000        294
 102.9000        326
 103.0000        282
 103.1000        315
 103.2000        313
 103.3000        290
 103.4000        292
 103.5000        348
 103.6000        304
 103.7000        312
 103.8000        305
 103.9000        326
 104.0000        308
 104.1000        319
 104.2000        313
 104.3000        331
 104.4000        315
 104.5000        337
 104.6000        356
 104.7000        293
 104.8000        348
 104.9000        317
 105.0000        317
 105.1000        317
 105.2000        360
 105.3000        300
 105.4000        337
 105.5000        335
 105.6000        311
 105.7000        341
 105.8000        335
 105.9000        336
 106.0000        318
 106.1000        331
 106.2000        327
 106.3000        323
 106.4000        311
 106.5000        337
 106.6000        338
 106.7000        352
 106.8000        327
 106.9000        305
 107.0000        319
 107.1000        322
 107.2000        338
 107.3000        328
 107.4000        315
 107.5000        351
 107.6000        314
 107.7000        332
 107.8000        315
 107.9000        313
 108.0000        333
 108.1000        309
 108.2000        324
 108.3000        318
 108.4000        339
 108.5000        341
 108.6000        321
 108.7000        361
 108.8000        370
 108.9000        327
 109.0000        386
 109.1000        359
 109.2000        349
 109.3000        325
 109.4000        331
 109.5000        360
 109.6000        335
 109.7000        314
 109.8000        387
 109.9000        340
 110.0000        357
 110.1000        324
 110.2000        352
 110.3000        335
 110.4000        335
 110.5000        336
 110.6000        373
 110.7000        308
 110.8000        352
 110.9000        328
 111.0000        341
 111.1000        370
 111.2000        343
 111.3000        336
 111.4000        349
 111.5000        338
 111.6000        326
 111.7000        366
 111.8000        364
 111.9000        315
 112.0000        360
 112.1000        352
 112.2000        378
 112.3000        353
 112.4000        374
 112.5000        349
 112.6000        361
 112.7000        358
 112.8000        372
 112.9000        370
 113.0000        369
 113.1000        385
 113.2000        347
 113.3000        341
 113.4000        342
 113.5000        340
 113.6000        398
 113.7000        354
 113.8000        414
 113.9000        375
 114.0000        350
 114.1000        354
 114.2000        366
 114.3000        336
 114.4000        388
 114.5000        364
 114.6000        341
 114.7000        347
 114.8000        352
 114.9000        336
 115.0000        367
 115.1000        365
 115.2000        341
 115.3000        378
 115.4000        348
 115.5000        365
 115.6000        383
 115.7000        394
 115.8000        350
 115.9000        373
 116.0000        322
 116.1000        355
 116.2000        363
 116.3000        366
 116.4000        369
 116.5000        403
 116.6000        381
 116.7000        356
 116.8000        405
 116.9000        351
 117.0000        410
 117.1000        397
 117.2000        393
 117.3000        403
 117.4000        381
 117.5000        387
 117.6000        405
 117.7000        405
 117.8000        426
 117.9000        388
 118.0000        349
 118.1000        399
 118.2000        386
 118.3000        380
 118.4000        360
 118.5000        371
 118.6000        399
 118.7000        338
 118.8000        396
 118.9000        392
 119.0000        382
 119.1000        407
 119.2000        354
 119.3000        363
 119.4000        419
 119.5000        380
 119.6000        418
 119.7000        351
 119.8000        390
 119.9000        363
 120.0000        415
 120.1000        421
 120.2000        372
 120.3000        411
 120.4000        408
 120.5000        379
 120.6000        392
 120.7000        383
 120.8000        396
 120.9000        393
 121.0000        371
 121.1000        372
 121.2000        379
 121.3000        409
 121.4000        383
 121.5000        407
 121.6000        429
 121.7000        413
 121.8000        450
 121.9000        436
 122.0000        449
 122.1000        425
 122.2000        434
 122.3000        447
 122.4000        457
 122.5000        443
 122.6000        441
 122.7000        511
 122.8000        515
 122.9000        501
 123.0000        525
 123.1000        541
 123.2000        545
 123.3000        525
 123.4000        523
 123.5000        524
 123.6000        549
 123.7000        539
 123.8000        524
 123.9000        506
 124.0000        493
 124.1000        476
 124.2000        456
 124.3000        452
 124.4000        441
 124.5000        438
 124.6000        437
 124.7000        407
 124.8000        445
 124.9000        449
 125.0000        398
 125.1000        428
 125.2000        407
 125.3000        421
 125.4000        406
 125.5000        389
 125.6000        384
 125.7000        393
 125.8000        446
 125.9000        396
 126.0000        382
 126.1000        406
 126.2000        440
 126.3000        391
 126.4000        432
 126.5000        394
 126.6000        374
 126.7000        387
 126.8000        404
 126.9000        422
 127.0000        400
 127.1000        370
 127.2000        408
 127.3000        403
 127.4000        417
 127.5000        457
 127.6000        392
 127.7000        431
 127.8000        445
 127.9000        442
 128.0000        421
 128.1000        383
 128.2000        439
 128.3000        456
 128.4000        418
 128.5000        440
 128.6000        396
 128.7000        395
 128.8000        409
 128.9000        372
 129.0000        431
 129.1000        417
 129.2000        422
 129.3000        414
 129.4000        415
 129.5000        451
 129.6000        408
 129.7000        406
 129.8000        406
 129.9000        418
 130.0000        440