File: exp_dat/old/exp_2013_11_11/24pct_-40L.uxd
; (content of file C:\DIFFDAT1\GIFT\MDL\Seawoong Lee\20131104_MV8\equal_area_maxkhi080_n8_2th40_130_x25y00_-40L.raw)
_FILEVERSION = 3
_SAMPLE =
_+SAMPLE =
_SITE = Korea
_USER = Admin
_GONIOMETER_CODE = 20
; Goniometer : D8 theta/2theta, stage : Unknown
_SAMPLE_CHANGER_CODE = 0
_ATTACHMENTS_CODE = 0
_GONIOMETER_RADIUS = 300
_FIXED_DIVSLIT = 1
_FIXED_SAMPLESLIT = 0
_SOLLER_SLITS = 2
_FIXED_DETSLIT = 0.1
_MONOCHROMATOR = 0
; Incident beam monochromator : None
_SOLLER_SLITS_2 = 2
_THIN_FILM = N
_BETA_FILTER = Y
_FIXED_ANTISLIT = 0.6
_ANALYZER_CODE = 0
; Received beam analyzer : None
_DATEMEASURED = "07-Nov-2013 15:35:40"
_WL_UNIT = A
_WL1 = 1.78897
_WL2 = 1.79285
_WL3 = 1.62079
_WLRATIO = 0.5
_ANODE = Co
_V4_INF_CREATOR = XRDWizard
_V4_INF_CREATOR_VERSION = V2.9.0.22
_V4_INF_WIZARD_VERSION = V2.9.0.22
_V4_INF_WIZARD_ADDINS = V2.9.0.22
_V4_INF_WIZARD_DOCTYPE = XRD
_V4_INF_OSUSER = Postech
_V4_INF_USER = Admin
_V4_INF_SITE = Korea

; Data for range 1
_DRIVE = COUPLED
_STEPTIME = 0.2
_STEPSIZE = 0.1
_STEPMODE = C
_START = 40
_THETA = 20
_2THETA = 40
_KHI = 0
_PHI = 0
_X = 25
_Y = 0
_Z = 0
_DETECTOR = 1
; Detector type : Scintillation counter
_HV = 687
_GAIN = 80
_LLD = 0.69
_ULD = 1.866
_DETECTORSLIT = unkn
_AUX1 = 0
_AUX2 = 0
_AUX3 = 0
_TIMESTARTED = 28
_TEMP_RATE = -1
_TEMP_DELAY = -1
_KV = 35
_MA = 40
_RANGE_WL = 1.78897
_3DPLANE = 0
_V4_ADDITIONALDETECTOR = 0
_V4_D8_DIBNUM = 1
_V4_DETECTORNAME = "Detector 1"
_V4_TTLDETECTOR = None
_V4_DETECTORTYPE = 1
_V4_DETECTORFLAGS = 524545
_V4_DETECTORHV = 687
_V4_DETECTORGAIN = 80
_V4_DETECTORLLD1 = 0.69
_V4_DETECTORWW1 = 1.176
_V4_DETECTORLLD2 = 0
_V4_DETECTORWW2 = 0
_V4_DETECTORPS = 0
_V4_DETECTORDT = 0
_V4_DETECTORPILEUPTIME = 0
_V4_COUNTERS_MASK = 1
_V4_DRIVES_MASK = 0
_V4_ENCODERS_MASK = 0
_2THETACOUNTS = 1
; 2THETA  Cnt1_D1
  40.0000        515
  40.1000        496
  40.2000        532
  40.3000        545
  40.4000        556
  40.5000        563
  40.6000        530
  40.7000        526
  40.8000        540
  40.9000        537
  41.0000        559
  41.1000        486
  41.2000        557
  41.3000        554
  41.4000        528
  41.5000        535
  41.6000        560
  41.7000        512
  41.8000        496
  41.9000        484
  42.0000        550
  42.1000        457
  42.2000        507
  42.3000        485
  42.4000        527
  42.5000        528
  42.6000        544
  42.7000        533
  42.8000        549
  42.9000        547
  43.0000        544
  43.1000        527
  43.2000        535
  43.3000        540
  43.4000        540
  43.5000        544
  43.6000        579
  43.7000        516
  43.8000        550
  43.9000        534
  44.0000        532
  44.1000        548
  44.2000        525
  44.3000        543
  44.4000        546
  44.5000        557
  44.6000        518
  44.7000        527
  44.8000        528
  44.9000        558
  45.0000        557
  45.1000        558
  45.2000        537
  45.3000        536
  45.4000        506
  45.5000        541
  45.6000        548
  45.7000        527
  45.8000        552
  45.9000        527
  46.0000        528
  46.1000        527
  46.2000        530
  46.3000        599
  46.4000        551
  46.5000        527
  46.6000        528
  46.7000        530
  46.8000        551
  46.9000        551
  47.0000        551
  47.1000        531
  47.2000        515
  47.3000        532
  47.4000        569
  47.5000        521
  47.6000        564
  47.7000        534
  47.8000        533
  47.9000        541
  48.0000        601
  48.1000        537
  48.2000        539
  48.3000        517
  48.4000        537
  48.5000        519
  48.6000        559
  48.7000        505
  48.8000        515
  48.9000        585
  49.0000        540
  49.1000        548
  49.2000        531
  49.3000        476
  49.4000        527
  49.5000        504
  49.6000        550
  49.7000        484
  49.8000        539
  49.9000        536
  50.0000        486
  50.1000        525
  50.2000        483
  50.3000        548
  50.4000        527
  50.5000        567
  50.6000        598
  50.7000        548
  50.8000        556
  50.9000        580
  51.0000        579
  51.1000        585
  51.2000        604
  51.3000        629
  51.4000        640
  51.5000        717
  51.6000        892
  51.7000       1126
  51.8000       1435
  51.9000       1622
  52.0000       1700
  52.1000       1834
  52.2000       1761
  52.3000       1779
  52.4000       1707
  52.5000       1526
  52.6000       1154
  52.7000        890
  52.8000        684
  52.9000        602
  53.0000        567
  53.1000        554
  53.2000        545
  53.3000        559
  53.4000        552
  53.5000        510
  53.6000        515
  53.7000        515
  53.8000        538
  53.9000        572
  54.0000        500
  54.1000        573
  54.2000        544
  54.3000        520
  54.4000        520
  54.5000        582
  54.6000        533
  54.7000        507
  54.8000        577
  54.9000        532
  55.0000        511
  55.1000        565
  55.2000        519
  55.3000        565
  55.4000        526
  55.5000        531
  55.6000        517
  55.7000        506
  55.8000        495
  55.9000        476
  56.0000        503
  56.1000        556
  56.2000        527
  56.3000        520
  56.4000        562
  56.5000        491
  56.6000        499
  56.7000        552
  56.8000        497
  56.9000        504
  57.0000        519
  57.1000        557
  57.2000        549
  57.3000        509
  57.4000        523
  57.5000        529
  57.6000        504
  57.7000        494
  57.8000        540
  57.9000        488
  58.0000        532
  58.1000        512
  58.2000        522
  58.3000        532
  58.4000        504
  58.5000        556
  58.6000        534
  58.7000        536
  58.8000        544
  58.9000        544
  59.0000        544
  59.1000        571
  59.2000        554
  59.3000        568
  59.4000        553
  59.5000        563
  59.6000        543
  59.7000        510
  59.8000        516
  59.9000        536
  60.0000        568
  60.1000        542
  60.2000        494
  60.3000        518
  60.4000        531
  60.5000        544
  60.6000        518
  60.7000        604
  60.8000        572
  60.9000        518
  61.0000        536
  61.1000        521
  61.2000        552
  61.3000        564
  61.4000        504
  61.5000        487
  61.6000        541
  61.7000        533
  61.8000        558
  61.9000        523
  62.0000        530
  62.1000        512
  62.2000        517
  62.3000        477
  62.4000        534
  62.5000        521
  62.6000        556
  62.7000        549
  62.8000        536
  62.9000        519
  63.0000        528
  63.1000        501
  63.2000        512
  63.3000        515
  63.4000        502
  63.5000        505
  63.6000        547
  63.7000        570
  63.8000        526
  63.9000        539
  64.0000        531
  64.1000        472
  64.2000        522
  64.3000        507
  64.4000        485
  64.5000        508
  64.6000        565
  64.7000        530
  64.8000        531
  64.9000        503
  65.0000        512
  65.1000        523
  65.2000        498
  65.3000        528
  65.4000        515
  65.5000        480
  65.6000        545
  65.7000        505
  65.8000        525
  65.9000        530
  66.0000        477
  66.1000        508
  66.2000        522
  66.3000        512
  66.4000        508
  66.5000        510
  66.6000        521
  66.7000        546
  66.8000        530
  66.9000        478
  67.0000        542
  67.1000        497
  67.2000        505
  67.3000        540
  67.4000        535
  67.5000        547
  67.6000        513
  67.7000        490
  67.8000        491
  67.9000        567
  68.0000        545
  68.1000        526
  68.2000        554
  68.3000        502
  68.4000        599
  68.5000        509
  68.6000        522
  68.7000        498
  68.8000        495
  68.9000        509
  69.0000        514
  69.1000        511
  69.2000        589
  69.3000        503
  69.4000        531
  69.5000        519
  69.6000        491
  69.7000        513
  69.8000        514
  69.9000        486
  70.0000        556
  70.1000        513
  70.2000        567
  70.3000        497
  70.4000        536
  70.5000        523
  70.6000        525
  70.7000        562
  70.8000        512
  70.9000        523
  71.0000        487
  71.1000        518
  71.2000        496
  71.3000        530
  71.4000        508
  71.5000        498
  71.6000        553
  71.7000        486
  71.8000        516
  71.9000        505
  72.0000        508
  72.1000        519
  72.2000        488
  72.3000        520
  72.4000        556
  72.5000        569
  72.6000        528
  72.7000        541
  72.8000        541
  72.9000        544
  73.0000        520
  73.1000        544
  73.2000        517
  73.3000        559
  73.4000        536
  73.5000        566
  73.6000        537
  73.7000        520
  73.8000        518
  73.9000        510
  74.0000        547
  74.1000        525
  74.2000        489
  74.3000        532
  74.4000        530
  74.5000        549
  74.6000        474
  74.7000        535
  74.8000        565
  74.9000        531
  75.0000        504
  75.1000        529
  75.2000        549
  75.3000        487
  75.4000        538
  75.5000        524
  75.6000        530
  75.7000        544
  75.8000        575
  75.9000        520
  76.0000        539
  76.1000        616
  76.2000        595
  76.3000        691
  76.4000        782
  76.5000        952
  76.6000       1029
  76.7000       1154
  76.8000       1175
  76.9000       1180
  77.0000       1153
  77.1000       1159
  77.2000       1094
  77.3000        940
  77.4000        855
  77.5000        712
  77.6000        679
  77.7000        584
  77.8000        635
  77.9000        540
  78.0000        536
  78.1000        522
  78.2000        534
  78.3000        515
  78.4000        534
  78.5000        539
  78.6000        501
  78.7000        505
  78.8000        511
  78.9000        548
  79.0000        553
  79.1000        551
  79.2000        542
  79.3000        538
  79.4000        558
  79.5000        527
  79.6000        541
  79.7000        540
  79.8000        546
  79.9000        508
  80.0000        545
  80.1000        519
  80.2000        517
  80.3000        531
  80.4000        546
  80.5000        562
  80.6000        524
  80.7000        518
  80.8000        505
  80.9000        530
  81.0000        494
  81.1000        496
  81.2000        510
  81.3000        498
  81.4000        507
  81.5000        543
  81.6000        531
  81.7000        500
  81.8000        534
  81.9000        516
  82.0000        544
  82.1000        526
  82.2000        529
  82.3000        498
  82.4000        575
  82.5000        521
  82.6000        502
  82.7000        556
  82.8000        512
  82.9000        513
  83.0000        531
  83.1000        523
  83.2000        477
  83.3000        559
  83.4000        503
  83.5000        472
  83.6000        533
  83.7000        542
  83.8000        517
  83.9000        498
  84.0000        526
  84.1000        500
  84.2000        508
  84.3000        543
  84.4000        492
  84.5000        515
  84.6000        534
  84.7000        512
  84.8000        489
  84.9000        512
  85.0000        533
  85.1000        537
  85.2000        524
  85.3000        530
  85.4000        542
  85.5000        516
  85.6000        490
  85.7000        511
  85.8000        551
  85.9000        529
  86.0000        537
  86.1000        508
  86.2000        502
  86.3000        551
  86.4000        463
  86.5000        538
  86.6000        497
  86.7000        488
  86.8000        478
  86.9000        511
  87.0000        541
  87.1000        514
  87.2000        528
  87.3000        512
  87.4000        520
  87.5000        511
  87.6000        557
  87.7000        539
  87.8000        506
  87.9000        493
  88.0000        566
  88.1000        530
  88.2000        506
  88.3000        522
  88.4000        507
  88.5000        497
  88.6000        484
  88.7000        517
  88.8000        561
  88.9000        537
  89.0000        552
  89.1000        542
  89.2000        530
  89.3000        555
  89.4000        582
  89.5000        539
  89.6000        550
  89.7000        586
  89.8000        536
  89.9000        557
  90.0000        572
  90.1000        564
  90.2000        540
  90.3000        519
  90.4000        537
  90.5000        523
  90.6000        515
  90.7000        467
  90.8000        548
  90.9000        539
  91.0000        521
  91.1000        543
  91.2000        501
  91.3000        547
  91.4000        504
  91.5000        495
  91.6000        502
  91.7000        552
  91.8000        503
  91.9000        553
  92.0000        519
  92.1000        511
  92.2000        501
  92.3000        487
  92.4000        505
  92.5000        487
  92.6000        505
  92.7000        525
  92.8000        521
  92.9000        551
  93.0000        539
  93.1000        509
  93.2000        491
  93.3000        532
  93.4000        481
  93.5000        510
  93.6000        540
  93.7000        501
  93.8000        508
  93.9000        499
  94.0000        512
  94.1000        546
  94.2000        521
  94.3000        538
  94.4000        518
  94.5000        521
  94.6000        481
  94.7000        506
  94.8000        542
  94.9000        492
  95.0000        577
  95.1000        540
  95.2000        530
  95.3000        501
  95.4000        496
  95.5000        509
  95.6000        539
  95.7000        466
  95.8000        564
  95.9000        549
  96.0000        505
  96.1000        546
  96.2000        521
  96.3000        522
  96.4000        508
  96.5000        483
  96.6000        521
  96.7000        536
  96.8000        519
  96.9000        535
  97.0000        552
  97.1000        534
  97.2000        510
  97.3000        509
  97.4000        541
  97.5000        540
  97.6000        482
  97.7000        566
  97.8000        542
  97.9000        482
  98.0000        559
  98.1000        511
  98.2000        550
  98.3000        616
  98.4000        620
  98.5000        630
  98.6000        658
  98.7000        819
  98.8000        942
  98.9000       1076
  99.0000       1185
  99.1000       1340
  99.2000       1446
  99.3000       1454
  99.4000       1485
  99.5000       1417
  99.6000       1353
  99.7000       1183
  99.8000       1063
  99.9000        896
 100.0000        750
 100.1000        653
 100.2000        608
 100.3000        594
 100.4000        574
 100.5000        610
 100.6000        555
 100.7000        526
 100.8000        549
 100.9000        556
 101.0000        548
 101.1000        538
 101.2000        541
 101.3000        522
 101.4000        542
 101.5000        522
 101.6000        562
 101.7000        568
 101.8000        558
 101.9000        521
 102.0000        535
 102.1000        545
 102.2000        519
 102.3000        499
 102.4000        570
 102.5000        517
 102.6000        582
 102.7000        498
 102.8000        532
 102.9000        505
 103.0000        495
 103.1000        553
 103.2000        501
 103.3000        548
 103.4000        559
 103.5000        507
 103.6000        527
 103.7000        514
 103.8000        514
 103.9000        470
 104.0000        482
 104.1000        523
 104.2000        541
 104.3000        537
 104.4000        534
 104.5000        494
 104.6000        504
 104.7000        584
 104.8000        488
 104.9000        519
 105.0000        529
 105.1000        495
 105.2000        535
 105.3000        499
 105.4000        505
 105.5000        491
 105.6000        508
 105.7000        557
 105.8000        492
 105.9000        546
 106.0000        510
 106.1000        550
 106.2000        531
 106.3000        499
 106.4000        475
 106.5000        534
 106.6000        533
 106.7000        538
 106.8000        466
 106.9000        505
 107.0000        516
 107.1000        521
 107.2000        466
 107.3000        532
 107.4000        499
 107.5000        544
 107.6000        525
 107.7000        546
 107.8000        498
 107.9000        542
 108.0000        571
 108.1000        543
 108.2000        550
 108.3000        556
 108.4000        530
 108.5000        490
 108.6000        543
 108.7000        523
 108.8000        496
 108.9000        493
 109.0000        514
 109.1000        534
 109.2000        501
 109.3000        501
 109.4000        536
 109.5000        486
 109.6000        483
 109.7000        514
 109.8000        498
 109.9000        526
 110.0000        551
 110.1000        582
 110.2000        532
 110.3000        546
 110.4000        522
 110.5000        488
 110.6000        524
 110.7000        506
 110.8000        564
 110.9000        547
 111.0000        534
 111.1000        551
 111.2000        520
 111.3000        528
 111.4000        489
 111.5000        557
 111.6000        522
 111.7000        501
 111.8000        510
 111.9000        534
 112.0000        478
 112.1000        544
 112.2000        531
 112.3000        539
 112.4000        561
 112.5000        531
 112.6000        521
 112.7000        552
 112.8000        523
 112.9000        516
 113.0000        521
 113.1000        532
 113.2000        505
 113.3000        522
 113.4000        528
 113.5000        501
 113.6000        534
 113.7000        542
 113.8000        530
 113.9000        518
 114.0000        507
 114.1000        511
 114.2000        509
 114.3000        501
 114.4000        483
 114.5000        545
 114.6000        510
 114.7000        511
 114.8000        535
 114.9000        544
 115.0000        527
 115.1000        508
 115.2000        512
 115.3000        561
 115.4000        466
 115.5000        543
 115.6000        514
 115.7000        534
 115.8000        537
 115.9000        486
 116.0000        509
 116.1000        476
 116.2000        565
 116.3000        551
 116.4000        532
 116.5000        522
 116.6000        534
 116.7000        527
 116.8000        504
 116.9000        487
 117.0000        531
 117.1000        461
 117.2000        506
 117.3000        513
 117.4000        561
 117.5000        518
 117.6000        512
 117.7000        522
 117.8000        533
 117.9000        482
 118.0000        512
 118.1000        532
 118.2000        502
 118.3000        527
 118.4000        536
 118.5000        509
 118.6000        495
 118.7000        527
 118.8000        516
 118.9000        519
 119.0000        462
 119.1000        532
 119.2000        508
 119.3000        521
 119.4000        480
 119.5000        487
 119.6000        502
 119.7000        503
 119.8000        532
 119.9000        495
 120.0000        510
 120.1000        540
 120.2000        528
 120.3000        523
 120.4000        507
 120.5000        511
 120.6000        526
 120.7000        530
 120.8000        502
 120.9000        501
 121.0000        562
 121.1000        547
 121.2000        521
 121.3000        551
 121.4000        530
 121.5000        517
 121.6000        505
 121.7000        540
 121.8000        513
 121.9000        455
 122.0000        501
 122.1000        518
 122.2000        520
 122.3000        536
 122.4000        535
 122.5000        501
 122.6000        566
 122.7000        539
 122.8000        575
 122.9000        578
 123.0000        588
 123.1000        635
 123.2000        595
 123.3000        640
 123.4000        605
 123.5000        673
 123.6000        635
 123.7000        554
 123.8000        606
 123.9000        564
 124.0000        589
 124.1000        556
 124.2000        526
 124.3000        559
 124.4000        514
 124.5000        527
 124.6000        491
 124.7000        496
 124.8000        515
 124.9000        509
 125.0000        547
 125.1000        552
 125.2000        483
 125.3000        494
 125.4000        520
 125.5000        510
 125.6000        524
 125.7000        508
 125.8000        496
 125.9000        497
 126.0000        518
 126.1000        488
 126.2000        489
 126.3000        563
 126.4000        527
 126.5000        505
 126.6000        549
 126.7000        538
 126.8000        491
 126.9000        565
 127.0000        527
 127.1000        489
 127.2000        567
 127.3000        520
 127.4000        525
 127.5000        503
 127.6000        516
 127.7000        569
 127.8000        501
 127.9000        525
 128.0000        558
 128.1000        516
 128.2000        529
 128.3000        526
 128.4000        510
 128.5000        499
 128.6000        584
 128.7000        504
 128.8000        506
 128.9000        543
 129.0000        535
 129.1000        523
 129.2000        502
 129.3000        532
 129.4000        530
 129.5000        525
 129.6000        516
 129.7000        461
 129.8000        546
 129.9000        533
 130.0000        533

; Data for range 2
_DRIVE = COUPLED
_STEPTIME = 0.2
_STEPSIZE = 0.1
_STEPMODE = C
_START = 40
_THETA = 20
_2THETA = 40
_KHI = 10.5
_PHI = 60
_X = 25
_Y = 0
_Z = 0
_DETECTOR = 1
; Detector type : Scintillation counter
_HV = 687
_GAIN = 80
_LLD = 0.69
_ULD = 1.866
_DETECTORSLIT = unkn
_AUX1 = 0
_AUX2 = 0
_AUX3 = 0
_TIMESTARTED = 225
_TEMP_RATE = -1
_TEMP_DELAY = -1
_KV = 35
_MA = 40
_RANGE_WL = 1.78897
_3DPLANE = 0
_V4_ADDITIONALDETECTOR = 0
_V4_D8_DIBNUM = 1
_V4_DETECTORNAME = "Detector 1"
_V4_TTLDETECTOR = None
_V4_DETECTORTYPE = 1
_V4_DETECTORFLAGS = 524545
_V4_DETECTORHV = 687
_V4_DETECTORGAIN = 80
_V4_DETECTORLLD1 = 0.69
_V4_DETECTORWW1 = 1.176
_V4_DETECTORLLD2 = 0
_V4_DETECTORWW2 = 0
_V4_DETECTORPS = 0
_V4_DETECTORDT = 0
_V4_DETECTORPILEUPTIME = 0
_V4_COUNTERS_MASK = 1
_V4_DRIVES_MASK = 0
_V4_ENCODERS_MASK = 0
_2THETACOUNTS = 1
; 2THETA  Cnt1_D1
  40.0000        538
  40.1000        549
  40.2000        511
  40.3000        519
  40.4000        581
  40.5000        566
  40.6000        527
  40.7000        523
  40.8000        487
  40.9000        495
  41.0000        556
  41.1000        565
  41.2000        576
  41.3000        567
  41.4000        546
  41.5000        538
  41.6000        564
  41.7000        548
  41.8000        561
  41.9000        555
  42.0000        561
  42.1000        541
  42.2000        552
  42.3000        559
  42.4000        535
  42.5000        557
  42.6000        552
  42.7000        582
  42.8000        565
  42.9000        576
  43.0000        558
  43.1000        540
  43.2000        494
  43.3000        539
  43.4000        515
  43.5000        558
  43.6000        568
  43.7000        564
  43.8000        560
  43.9000        522
  44.0000        539
  44.1000        550
  44.2000        516
  44.3000        516
  44.4000        547
  44.5000        538
  44.6000        516
  44.7000        594
  44.8000        565
  44.9000        529
  45.0000        569
  45.1000        529
  45.2000        539
  45.3000        539
  45.4000        538
  45.5000        549
  45.6000        544
  45.7000        552
  45.8000        556
  45.9000        515
  46.0000        540
  46.1000        535
  46.2000        556
  46.3000        542
  46.4000        527
  46.5000        554
  46.6000        526
  46.7000        516
  46.8000        547
  46.9000        525
  47.0000        531
  47.1000        520
  47.2000        534
  47.3000        513
  47.4000        501
  47.5000        558
  47.6000        556
  47.7000        547
  47.8000        535
  47.9000        543
  48.0000        577
  48.1000        520
  48.2000        527
  48.3000        540
  48.4000        544
  48.5000        567
  48.6000        530
  48.7000        535
  48.8000        593
  48.9000        500
  49.0000        574
  49.1000        563
  49.2000        537
  49.3000        564
  49.4000        585
  49.5000        556
  49.6000        569
  49.7000        512
  49.8000        562
  49.9000        601
  50.0000        518
  50.1000        529
  50.2000        556
  50.3000        591
  50.4000        576
  50.5000        571
  50.6000        560
  50.7000        608
  50.8000        574
  50.9000        613
  51.0000        587
  51.1000        562
  51.2000        593
  51.3000        614
  51.4000        589
  51.5000        714
  51.6000        861
  51.7000       1157
  51.8000       1379
  51.9000       1529
  52.0000       1625
  52.1000       1749
  52.2000       1742
  52.3000       1746
  52.4000       1584
  52.5000       1508
  52.6000       1157
  52.7000        871
  52.8000        701
  52.9000        600
  53.0000        581
  53.1000        589
  53.2000        506
  53.3000        540
  53.4000        577
  53.5000        567
  53.6000        539
  53.7000        541
  53.8000        506
  53.9000        542
  54.0000        587
  54.1000        550
  54.2000        520
  54.3000        541
  54.4000        502
  54.5000        526
  54.6000        530
  54.7000        545
  54.8000        567
  54.9000        513
  55.0000        542
  55.1000        478
  55.2000        554
  55.3000        565
  55.4000        531
  55.5000        583
  55.6000        558
  55.7000        572
  55.8000        535
  55.9000        544
  56.0000        559
  56.1000        556
  56.2000        543
  56.3000        533
  56.4000        527
  56.5000        537
  56.6000        506
  56.7000        532
  56.8000        512
  56.9000        553
  57.0000        535
  57.1000        579
  57.2000        503
  57.3000        554
  57.4000        515
  57.5000        550
  57.6000        523
  57.7000        532
  57.8000        548
  57.9000        539
  58.0000        473
  58.1000        503
  58.2000        553
  58.3000        545
  58.4000        522
  58.5000        484
  58.6000        539
  58.7000        566
  58.8000        584
  58.9000        563
  59.0000        547
  59.1000        561
  59.2000        506
  59.3000        561
  59.4000        554
  59.5000        558
  59.6000        581
  59.7000        521
  59.8000        545
  59.9000        533
  60.0000        520
  60.1000        560
  60.2000        529
  60.3000        519
  60.4000        503
  60.5000        498
  60.6000        500
  60.7000        488
  60.8000        499
  60.9000        536
  61.0000        557
  61.1000        533
  61.2000        533
  61.3000        555
  61.4000        553
  61.5000        526
  61.6000        486
  61.7000        560
  61.8000        546
  61.9000        528
  62.0000        526
  62.1000        510
  62.2000        551
  62.3000        492
  62.4000        540
  62.5000        562
  62.6000        537
  62.7000        509
  62.8000        562
  62.9000        514
  63.0000        529
  63.1000        521
  63.2000        506
  63.3000        530
  63.4000        546
  63.5000        558
  63.6000        493
  63.7000        480
  63.8000        573
  63.9000        490
  64.0000        505
  64.1000        527
  64.2000        501
  64.3000        535
  64.4000        527
  64.5000        512
  64.6000        563
  64.7000        565
  64.8000        503
  64.9000        514
  65.0000        550
  65.1000        530
  65.2000        564
  65.3000        522
  65.4000        550
  65.5000        501
  65.6000        501
  65.7000        541
  65.8000        510
  65.9000        529
  66.0000        511
  66.1000        528
  66.2000        518
  66.3000        533
  66.4000        509
  66.5000        517
  66.6000        510
  66.7000        537
  66.8000        508
  66.9000        555
  67.0000        543
  67.1000        535
  67.2000        513
  67.3000        551
  67.4000        558
  67.5000        536
  67.6000        530
  67.7000        548
  67.8000        543
  67.9000        515
  68.0000        526
  68.1000        497
  68.2000        543
  68.3000        523
  68.4000        559
  68.5000        542
  68.6000        548
  68.7000        535
  68.8000        530
  68.9000        469
  69.0000        586
  69.1000        536
  69.2000        544
  69.3000        526
  69.4000        542
  69.5000        540
  69.6000        515
  69.7000        529
  69.8000        487
  69.9000        526
  70.0000        562
  70.1000        536
  70.2000        570
  70.3000        537
  70.4000        516
  70.5000        587
  70.6000        518
  70.7000        544
  70.8000        516
  70.9000        493
  71.0000        546
  71.1000        492
  71.2000        535
  71.3000        479
  71.4000        497
  71.5000        507
  71.6000        554
  71.7000        525
  71.8000        531
  71.9000        521
  72.0000        514
  72.1000        508
  72.2000        540
  72.3000        485
  72.4000        541
  72.5000        521
  72.6000        522
  72.7000        480
  72.8000        499
  72.9000        538
  73.0000        546
  73.1000        535
  73.2000        551
  73.3000        513
  73.4000        514
  73.5000        562
  73.6000        556
  73.7000        554
  73.8000        541
  73.9000        534
  74.0000        494
  74.1000        528
  74.2000        529
  74.3000        530
  74.4000        535
  74.5000        508
  74.6000        564
  74.7000        506
  74.8000        509
  74.9000        528
  75.0000        576
  75.1000        559
  75.2000        526
  75.3000        565
  75.4000        566
  75.5000        555
  75.6000        521
  75.7000        528
  75.8000        563
  75.9000        565
  76.0000        547
  76.1000        592
  76.2000        605
  76.3000        634
  76.4000        677
  76.5000        759
  76.6000        817
  76.7000        819
  76.8000        899
  76.9000        920
  77.0000        896
  77.1000        848
  77.2000        887
  77.3000        823
  77.4000        693
  77.5000        680
  77.6000        647
  77.7000        526
  77.8000        551
  77.9000        564
  78.0000        518
  78.1000        527
  78.2000        512
  78.3000        569
  78.4000        509
  78.5000        531
  78.6000        562
  78.7000        540
  78.8000        512
  78.9000        544
  79.0000        504
  79.1000        524
  79.2000        534
  79.3000        501
  79.4000        491
  79.5000        536
  79.6000        544
  79.7000        554
  79.8000        538
  79.9000        483
  80.0000        531
  80.1000        571
  80.2000        522
  80.3000        522
  80.4000        491
  80.5000        529
  80.6000        485
  80.7000        568
  80.8000        510
  80.9000        544
  81.0000        546
  81.1000        551
  81.2000        540
  81.3000        483
  81.4000        540
  81.5000        540
  81.6000        524
  81.7000        555
  81.8000        552
  81.9000        505
  82.0000        555
  82.1000        504
  82.2000        542
  82.3000        504
  82.4000        528
  82.5000        524
  82.6000        561
  82.7000        552
  82.8000        501
  82.9000        517
  83.0000        518
  83.1000        530
  83.2000        513
  83.3000        538
  83.4000        513
  83.5000        519
  83.6000        543
  83.7000        533
  83.8000        506
  83.9000        512
  84.0000        515
  84.1000        532
  84.2000        519
  84.3000        520
  84.4000        520
  84.5000        512
  84.6000        497
  84.7000        515
  84.8000        503
  84.9000        572
  85.0000        514
  85.1000        471
  85.2000        505
  85.3000        561
  85.4000        558
  85.5000        513
  85.6000        524
  85.7000        533
  85.8000        572
  85.9000        575
  86.0000        550
  86.1000        535
  86.2000        493
  86.3000        532
  86.4000        526
  86.5000        514
  86.6000        520
  86.7000        513
  86.8000        506
  86.9000        531
  87.0000        533
  87.1000        510
  87.2000        484
  87.3000        552
  87.4000        549
  87.5000        516
  87.6000        509
  87.7000        502
  87.8000        544
  87.9000        554
  88.0000        512
  88.1000        540
  88.2000        510
  88.3000        519
  88.4000        545
  88.5000        557
  88.6000        525
  88.7000        528
  88.8000        503
  88.9000        538
  89.0000        509
  89.1000        527
  89.2000        550
  89.3000        556
  89.4000        559
  89.5000        583
  89.6000        534
  89.7000        516
  89.8000        495
  89.9000        550
  90.0000        548
  90.1000        563
  90.2000        517
  90.3000        543
  90.4000        510
  90.5000        490
  90.6000        567
  90.7000        526
  90.8000        552
  90.9000        528
  91.0000        553
  91.1000        532
  91.2000        489
  91.3000        519
  91.4000        493
  91.5000        542
  91.6000        492
  91.7000        541
  91.8000        518
  91.9000        536
  92.0000        531
  92.1000        542
  92.2000        541
  92.3000        517
  92.4000        529
  92.5000        521
  92.6000        498
  92.7000        514
  92.8000        532
  92.9000        511
  93.0000        530
  93.1000        556
  93.2000        527
  93.3000        499
  93.4000        515
  93.5000        559
  93.6000        540
  93.7000        491
  93.8000        474
  93.9000        533
  94.0000        525
  94.1000        562
  94.2000        491
  94.3000        488
  94.4000        526
  94.5000        499
  94.6000        495
  94.7000        577
  94.8000        538
  94.9000        545
  95.0000        487
  95.1000        545
  95.2000        506
  95.3000        529
  95.4000        530
  95.5000        507
  95.6000        494
  95.7000        517
  95.8000        512
  95.9000        548
  96.0000        548
  96.1000        566
  96.2000        511
  96.3000        534
  96.4000        516
  96.5000        567
  96.6000        515
  96.7000        539
  96.8000        527
  96.9000        548
  97.0000        551
  97.1000        532
  97.2000        526
  97.3000        523
  97.4000        558
  97.5000        518
  97.6000        520
  97.7000        507
  97.8000        566
  97.9000        566
  98.0000        533
  98.1000        552
  98.2000        563
  98.3000        581
  98.4000        614
  98.5000        611
  98.6000        622
  98.7000        705
  98.8000        834
  98.9000        918
  99.0000       1029
  99.1000       1033
  99.2000       1088
  99.3000       1158
  99.4000       1148
  99.5000       1132
  99.6000       1039
  99.7000        922
  99.8000        843
  99.9000        810
 100.0000        713
 100.1000        642
 100.2000        589
 100.3000        569
 100.4000        541
 100.5000        538
 100.6000        539
 100.7000        536
 100.8000        553
 100.9000        522
 101.0000        547
 101.1000        524
 101.2000        520
 101.3000        548
 101.4000        540
 101.5000        544
 101.6000        512
 101.7000        545
 101.8000        524
 101.9000        527
 102.0000        551
 102.1000        514
 102.2000        533
 102.3000        529
 102.4000        534
 102.5000        539
 102.6000        529
 102.7000        515
 102.8000        554
 102.9000        548
 103.0000        497
 103.1000        518
 103.2000        563
 103.3000        506
 103.4000        536
 103.5000        507
 103.6000        498
 103.7000        481
 103.8000        527
 103.9000        507
 104.0000        509
 104.1000        541
 104.2000        536
 104.3000        522
 104.4000        480
 104.5000        485
 104.6000        534
 104.7000        534
 104.8000        516
 104.9000        490
 105.0000        516
 105.1000        502
 105.2000        525
 105.3000        524
 105.4000        520
 105.5000        546
 105.6000        497
 105.7000        514
 105.8000        517
 105.9000        531
 106.0000        534
 106.1000        491
 106.2000        495
 106.3000        529
 106.4000        530
 106.5000        543
 106.6000        539
 106.7000        537
 106.8000        517
 106.9000        547
 107.0000        538
 107.1000        499
 107.2000        544
 107.3000        497
 107.4000        536
 107.5000        504
 107.6000        536
 107.7000        554
 107.8000        510
 107.9000        546
 108.0000        517
 108.1000        551
 108.2000        497
 108.3000        468
 108.4000        506
 108.5000        517
 108.6000        526
 108.7000        526
 108.8000        466
 108.9000        504
 109.0000        519
 109.1000        502
 109.2000        515
 109.3000        465
 109.4000        551
 109.5000        534
 109.6000        497
 109.7000        558
 109.8000        542
 109.9000        543
 110.0000        503
 110.1000        485
 110.2000        520
 110.3000        525
 110.4000        543
 110.5000        528
 110.6000        539
 110.7000        577
 110.8000        484
 110.9000        558
 111.0000        545
 111.1000        531
 111.2000        531
 111.3000        558
 111.4000        538
 111.5000        560
 111.6000        545
 111.7000        516
 111.8000        496
 111.9000        511
 112.0000        521
 112.1000        505
 112.2000        502
 112.3000        504
 112.4000        532
 112.5000        530
 112.6000        530
 112.7000        500
 112.8000        527
 112.9000        550
 113.0000        542
 113.1000        577
 113.2000        543
 113.3000        521
 113.4000        531
 113.5000        534
 113.6000        529
 113.7000        538
 113.8000        523
 113.9000        489
 114.0000        587
 114.1000        548
 114.2000        513
 114.3000        516
 114.4000        522
 114.5000        547
 114.6000        552
 114.7000        539
 114.8000        506
 114.9000        525
 115.0000        508
 115.1000        498
 115.2000        548
 115.3000        530
 115.4000        523
 115.5000        550
 115.6000        499
 115.7000        547
 115.8000        526
 115.9000        551
 116.0000        502
 116.1000        519
 116.2000        517
 116.3000        527
 116.4000        529
 116.5000        541
 116.6000        507
 116.7000        524
 116.8000        507
 116.9000        545
 117.0000        519
 117.1000        523
 117.2000        517
 117.3000        513
 117.4000        504
 117.5000        529
 117.6000        548
 117.7000        540
 117.8000        556
 117.9000        519
 118.0000        541
 118.1000        571
 118.2000        551
 118.3000        525
 118.4000        516
 118.5000        517
 118.6000        484
 118.7000        488
 118.8000        476
 118.9000        535
 119.0000        481
 119.1000        495
 119.2000        495
 119.3000        525
 119.4000        551
 119.5000        531
 119.6000        525
 119.7000        527
 119.8000        482
 119.9000        523
 120.0000        536
 120.1000        500
 120.2000        513
 120.3000        508
 120.4000        513
 120.5000        535
 120.6000        533
 120.7000        519
 120.8000        517
 120.9000        564
 121.0000        492
 121.1000        546
 121.2000        502
 121.3000        522
 121.4000        518
 121.5000        516
 121.6000        560
 121.7000        503
 121.8000        521
 121.9000        489
 122.0000        528
 122.1000        555
 122.2000        537
 122.3000        580
 122.4000        509
 122.5000        547
 122.6000        519
 122.7000        545
 122.8000        529
 122.9000        607
 123.0000        617
 123.1000        645
 123.2000        625
 123.3000        619
 123.4000        625
 123.5000        646
 123.6000        646
 123.7000        620
 123.8000        569
 123.9000        605
 124.0000        584
 124.1000        561
 124.2000        595
 124.3000        519
 124.4000        558
 124.5000        499
 124.6000        541
 124.7000        548
 124.8000        525
 124.9000        503
 125.0000        536
 125.1000        538
 125.2000        488
 125.3000        540
 125.4000        508
 125.5000        524
 125.6000        494
 125.7000        538
 125.8000        484
 125.9000        530
 126.0000        563
 126.1000        510
 126.2000        516
 126.3000        512
 126.4000        520
 126.5000        534
 126.6000        525
 126.7000        559
 126.8000        507
 126.9000        515
 127.0000        514
 127.1000        518
 127.2000        510
 127.3000        539
 127.4000        548
 127.5000        484
 127.6000        520
[...]
 129.1000        362
 129.2000        373
 129.3000        379
 129.4000        365
 129.5000        355
 129.6000        363
 129.7000        387
 129.8000        361
 129.9000        375
 130.0000        373

; Data for range 53
_DRIVE = COUPLED
_STEPTIME = 0.2
_STEPSIZE = 0.1
_STEPMODE = C
_START = 40
_THETA = 20
_2THETA = 40
_KHI = 80
_PHI = 0
_X = 25
_Y = 0
_Z = 0
_DETECTOR = 1
; Detector type : Scintillation counter
_HV = 687
_GAIN = 80
_LLD = 0.69
_ULD = 1.866
_DETECTORSLIT = unkn
_AUX1 = 0
_AUX2 = 0
_AUX3 = 0
_TIMESTARTED = 1.03e+004
_TEMP_RATE = -1
_TEMP_DELAY = -1
_KV = 35
_MA = 40
_RANGE_WL = 1.78897
_3DPLANE = 0
_V4_ADDITIONALDETECTOR = 0
_V4_D8_DIBNUM = 1
_V4_DETECTORNAME = "Detector 1"
_V4_TTLDETECTOR = None
_V4_DETECTORTYPE = 1
_V4_DETECTORFLAGS = 524545
_V4_DETECTORHV = 687
_V4_DETECTORGAIN = 80
_V4_DETECTORLLD1 = 0.69
_V4_DETECTORWW1 = 1.176
_V4_DETECTORLLD2 = 0
_V4_DETECTORWW2 = 0
_V4_DETECTORPS = 0
_V4_DETECTORDT = 0
_V4_DETECTORPILEUPTIME = 0
_V4_COUNTERS_MASK = 1
_V4_DRIVES_MASK = 0
_V4_ENCODERS_MASK = 0
_2THETACOUNTS = 1
; 2THETA  Cnt1_D1
  40.0000        169
  40.1000        170
  40.2000        163
  40.3000        173
  40.4000        183
  40.5000        181
  40.6000        158
  40.7000        162
  40.8000        174
  40.9000        180
  41.0000        183
  41.1000        160
  41.2000        153
  41.3000        154
  41.4000        170
  41.5000        145
  41.6000        171
  41.7000        158
  41.8000        180
  41.9000        148
  42.0000        172
  42.1000        173
  42.2000        169
  42.3000        186
  42.4000        189
  42.5000        216
  42.6000        215
  42.7000        214
  42.8000        255
  42.9000        241
  43.0000        239
  43.1000        247
  43.2000        259
  43.3000        264
  43.4000        269
  43.5000        265
  43.6000        250
  43.7000        223
  43.8000        210
  43.9000        242
  44.0000        180
  44.1000        189
  44.2000        162
  44.3000        184
  44.4000        169
  44.5000        163
  44.6000        184
  44.7000        173
  44.8000        177
  44.9000        175
  45.0000        166
  45.1000        185
  45.2000        184
  45.3000        169
  45.4000        173
  45.5000        157
  45.6000        164
  45.7000        163
  45.8000        161
  45.9000        155
  46.0000        164
  46.1000        177
  46.2000        185
  46.3000        174
  46.4000        192
  46.5000        177
  46.6000        186
  46.7000        158
  46.8000        178
  46.9000        195
  47.0000        200
  47.1000        193
  47.2000        156
  47.3000        188
  47.4000        191
  47.5000        188
  47.6000        176
  47.7000        183
  47.8000        183
  47.9000        184
  48.0000        193
  48.1000        194
  48.2000        176
  48.3000        162
  48.4000        167
  48.5000        178
  48.6000        167
  48.7000        173
  48.8000        182
  48.9000        206
  49.0000        183
  49.1000        181
  49.2000        208
  49.3000        196
  49.4000        197
  49.5000        188
  49.6000        220
  49.7000        195
  49.8000        234
  49.9000        199
  50.0000        232
  50.1000        218
  50.2000        203
  50.3000        231
  50.4000        263
  50.5000        233
  50.6000        245
  50.7000        265
  50.8000        244
  50.9000        257
  51.0000        270
  51.1000        275
  51.2000        320
  51.3000        363
  51.4000        451
  51.5000        511
  51.6000        563
  51.7000        677
  51.8000        770
  51.9000        788
  52.0000        880
  52.1000        928
  52.2000        962
  52.3000        885
  52.4000        865
  52.5000        898
  52.6000        783
  52.7000        753
  52.8000        609
  52.9000        567
  53.0000        521
  53.1000        449
  53.2000        383
  53.3000        347
  53.4000        284
  53.5000        240
  53.6000        234
  53.7000        217
  53.8000        214
  53.9000        198
  54.0000        198
  54.1000        203
  54.2000        220
  54.3000        208
  54.4000        209
  54.5000        228
  54.6000        200
  54.7000        189
  54.8000        197
  54.9000        210
  55.0000        211
  55.1000        198
  55.2000        202
  55.3000        207
  55.4000        187
  55.5000        195
  55.6000        200
  55.7000        206
  55.8000        218
  55.9000        220
  56.0000        232
  56.1000        240
  56.2000        220
  56.3000        195
  56.4000        204
  56.5000        196
  56.6000        219
  56.7000        207
  56.8000        240
  56.9000        197
  57.0000        237
  57.1000        216
  57.2000        219
  57.3000        220
  57.4000        202
  57.5000        208
  57.6000        200
  57.7000        215
  57.8000        197
  57.9000        218
  58.0000        220
  58.1000        221
  58.2000        201
  58.3000        201
  58.4000        191
  58.5000        194
  58.6000        201
  58.7000        181
  58.8000        217
  58.9000        218
  59.0000        203
  59.1000        195
  59.2000        218
  59.3000        200
  59.4000        221
  59.5000        193
  59.6000        210
  59.7000        188
  59.8000        239
  59.9000        240
  60.0000        220
  60.1000        231
  60.2000        230
  60.3000        202
  60.4000        216
  60.5000        232
  60.6000        215
  60.7000        223
  60.8000        233
  60.9000        221
  61.0000        209
  61.1000        225
  61.2000        211
  61.3000        204
  61.4000        205
  61.5000        200
  61.6000        204
  61.7000        200
  61.8000        218
  61.9000        221
  62.0000        171
  62.1000        216
  62.2000        226
  62.3000        212
  62.4000        205
  62.5000        210
  62.6000        231
  62.7000        215
  62.8000        222
  62.9000        220
  63.0000        224
  63.1000        202
  63.2000        208
  63.3000        231
  63.4000        224
  63.5000        198
  63.6000        192
  63.7000        226
  63.8000        229
  63.9000        215
  64.0000        272
  64.1000        215
  64.2000        233
  64.3000        217
  64.4000        225
  64.5000        249
  64.6000        222
  64.7000        197
  64.8000        226
  64.9000        216
  65.0000        238
  65.1000        210
  65.2000        225
  65.3000        243
  65.4000        215
  65.5000        237
  65.6000        233
  65.7000        226
  65.8000        247
  65.9000        227
  66.0000        223
  66.1000        219
  66.2000        225
  66.3000        225
  66.4000        217
  66.5000        229
  66.6000        216
  66.7000        234
  66.8000        248
  66.9000        247
  67.0000        243
  67.1000        241
  67.2000        211
  67.3000        234
  67.4000        193
  67.5000        242
  67.6000        228
  67.7000        217
  67.8000        247
  67.9000        251
  68.0000        233
  68.1000        228
  68.2000        221
  68.3000        218
  68.4000        234
  68.5000        237
  68.6000        271
  68.7000        254
  68.8000        240
  68.9000        238
  69.0000        243
  69.1000        247
  69.2000        252
  69.3000        211
  69.4000        234
  69.5000        234
  69.6000        242
  69.7000        231
  69.8000        218
  69.9000        262
  70.0000        235
  70.1000        252
  70.2000        253
  70.3000        277
  70.4000        245
  70.5000        274
  70.6000        215
  70.7000        236
  70.8000        238
  70.9000        263
  71.0000        230
  71.1000        244
  71.2000        259
  71.3000        240
  71.4000        248
  71.5000        236
  71.6000        227
  71.7000        264
  71.8000        258
  71.9000        263
  72.0000        233
  72.1000        266
  72.2000        252
  72.3000        244
  72.4000        256
  72.5000        249
  72.6000        271
  72.7000        221
  72.8000        266
  72.9000        249
  73.0000        271
  73.1000        259
  73.2000        259
  73.3000        240
  73.4000        270
  73.5000        288
  73.6000        235
  73.7000        226
  73.8000        244
  73.9000        242
  74.0000        266
  74.1000        257
  74.2000        268
  74.3000        241
  74.4000        255
  74.5000        276
  74.6000        267
  74.7000        258
  74.8000        282
  74.9000        256
  75.0000        247
  75.1000        271
  75.2000        274
  75.3000        274
  75.4000        274
  75.5000        274
  75.6000        298
  75.7000        289
  75.8000        264
  75.9000        295
  76.0000        270
  76.1000        284
  76.2000        256
  76.3000        315
  76.4000        303
  76.5000        320
  76.6000        286
  76.7000        308
  76.8000        309
  76.9000        291
  77.0000        307
  77.1000        306
  77.2000        295
  77.3000        308
  77.4000        271
  77.5000        310
  77.6000        301
  77.7000        293
  77.8000        284
  77.9000        257
  78.0000        302
  78.1000        288
  78.2000        290
  78.3000        278
  78.4000        299
  78.5000        299
  78.6000        251
  78.7000        256
  78.8000        293
  78.9000        301
  79.0000        245
  79.1000        258
  79.2000        254
  79.3000        291
  79.4000        283
  79.5000        280
  79.6000        265
  79.7000        292
  79.8000        287
  79.9000        289
  80.0000        285
  80.1000        280
  80.2000        275
  80.3000        266
  80.4000        301
  80.5000        274
  80.6000        272
  80.7000        272
  80.8000        284
  80.9000        279
  81.0000        279
  81.1000        273
  81.2000        302
  81.3000        300
  81.4000        257
  81.5000        249
  81.6000        299
  81.7000        291
  81.8000        268
  81.9000        285
  82.0000        305
  82.1000        269
  82.2000        294
  82.3000        283
  82.4000        289
  82.5000        300
  82.6000        301
  82.7000        280
  82.8000        289
  82.9000        300
  83.0000        281
  83.1000        278
  83.2000        296
  83.3000        288
  83.4000        279
  83.5000        265
  83.6000        257
  83.7000        291
  83.8000        294
  83.9000        267
  84.0000        285
  84.1000        269
  84.2000        286
  84.3000        295
  84.4000        305
  84.5000        287
  84.6000        296
  84.7000        314
  84.8000        292
  84.9000        270
  85.0000        275
  85.1000        267
  85.2000        268
  85.3000        270
  85.4000        294
  85.5000        314
  85.6000        283
  85.7000        277
  85.8000        324
  85.9000        298
  86.0000        284
  86.1000        318
  86.2000        319
  86.3000        293
  86.4000        326
  86.5000        281
  86.6000        310
  86.7000        308
  86.8000        304
  86.9000        318
  87.0000        317
  87.1000        261
  87.2000        298
  87.3000        313
  87.4000        288
  87.5000        304
  87.6000        310
  87.7000        311
  87.8000        299
  87.9000        320
  88.0000        293
  88.1000        300
  88.2000        309
  88.3000        312
  88.4000        288
  88.5000        319
  88.6000        295
  88.7000        288
  88.8000        303
  88.9000        302
  89.0000        324
  89.1000        298
  89.2000        307
  89.3000        340
  89.4000        300
  89.5000        318
  89.6000        307
  89.7000        312
  89.8000        311
  89.9000        313
  90.0000        300
  90.1000        320
  90.2000        362
  90.3000        346
  90.4000        302
  90.5000        300
  90.6000        300
  90.7000        301
  90.8000        333
  90.9000        314
  91.0000        294
  91.1000        306
  91.2000        284
  91.3000        298
  91.4000        291
  91.5000        303
  91.6000        318
  91.7000        293
  91.8000        336
  91.9000        324
  92.0000        314
  92.1000        314
  92.2000        308
  92.3000        337
  92.4000        343
  92.5000        361
  92.6000        296
  92.7000        344
  92.8000        314
  92.9000        320
  93.0000        318
  93.1000        305
  93.2000        306
  93.3000        292
  93.4000        348
  93.5000        299
  93.6000        321
  93.7000        322
  93.8000        291
  93.9000        333
  94.0000        315
  94.1000        332
  94.2000        289
  94.3000        327
  94.4000        328
  94.5000        315
  94.6000        316
  94.7000        290
  94.8000        299
  94.9000        313
  95.0000        336
  95.1000        318
  95.2000        322
  95.3000        335
  95.4000        317
  95.5000        315
  95.6000        303
  95.7000        342
  95.8000        341
  95.9000        350
  96.0000        282
  96.1000        291
  96.2000        328
  96.3000        339
  96.4000        299
  96.5000        290
  96.6000        315
  96.7000        328
  96.8000        314
  96.9000        349
  97.0000        317
  97.1000        303
  97.2000        333
  97.3000        331
  97.4000        355
  97.5000        345
  97.6000        348
  97.7000        359
  97.8000        346
  97.9000        368
  98.0000        387
  98.1000        387
  98.2000        419
  98.3000        408
  98.4000        435
  98.5000        493
  98.6000        489
  98.7000        503
  98.8000        530
  98.9000        542
  99.0000        578
  99.1000        574
  99.2000        566
  99.3000        584
  99.4000        587
  99.5000        587
  99.6000        569
  99.7000        529
  99.8000        519
  99.9000        543
 100.0000        511
 100.1000        508
 100.2000        426
 100.3000        456
 100.4000        376
 100.5000        377
 100.6000        388
 100.7000        385
 100.8000        327
 100.9000        329
 101.0000        384
 101.1000        354
 101.2000        321
 101.3000        326
 101.4000        344
 101.5000        343
 101.6000        366
 101.7000        351
 101.8000        334
 101.9000        366
 102.0000        367
 102.1000        335
 102.2000        351
 102.3000        347
 102.4000        312
 102.5000        367
 102.6000        348
 102.7000        337
 102.8000        315
 102.9000        355
 103.0000        362
 103.1000        343
 103.2000        361
 103.3000        359
 103.4000        351
 103.5000        326
 103.6000        326
 103.7000        340
 103.8000        385
 103.9000        355
 104.0000        336
 104.1000        370
 104.2000        339
 104.3000        359
 104.4000        344
 104.5000        341
 104.6000        362
 104.7000        410
 104.8000        338
 104.9000        351
 105.0000        365
 105.1000        340
 105.2000        329
 105.3000        380
 105.4000        326
 105.5000        338
 105.6000        353
 105.7000        343
 105.8000        337
 105.9000        349
 106.0000        350
 106.1000        380
 106.2000        366
 106.3000        342
 106.4000        343
 106.5000        341
 106.6000        383
 106.7000        335
 106.8000        337
 106.9000        358
 107.0000        367
 107.1000        336
 107.2000        349
 107.3000        359
 107.4000        367
 107.5000        371
 107.6000        345
 107.7000        324
 107.8000        303
 107.9000        349
 108.0000        346
 108.1000        358
 108.2000        355
 108.3000        353
 108.4000        330
 108.5000        342
 108.6000        378
 108.7000        386
 108.8000        391
 108.9000        391
 109.0000        350
 109.1000        381
 109.2000        334
 109.3000        349
 109.4000        330
 109.5000        367
 109.6000        372
 109.7000        394
 109.8000        369
 109.9000        364
 110.0000        349
 110.1000        376
 110.2000        337
 110.3000        345
 110.4000        374
 110.5000        402
 110.6000        417
 110.7000        380
 110.8000        346
 110.9000        378
 111.0000        395
 111.1000        369
 111.2000        349
 111.3000        356
 111.4000        364
 111.5000        386
 111.6000        386
 111.7000        361
 111.8000        349
 111.9000        366
 112.0000        343
 112.1000        343
 112.2000        364
 112.3000        334
 112.4000        339
 112.5000        380
 112.6000        336
 112.7000        344
 112.8000        360
 112.9000        373
 113.0000        364
 113.1000        337
 113.2000        364
 113.3000        365
 113.4000        378
 113.5000        379
 113.6000        324
 113.7000        368
 113.8000        373
 113.9000        337
 114.0000        378
 114.1000        372
 114.2000        383
 114.3000        385
 114.4000        358
 114.5000        376
 114.6000        330
 114.7000        369
 114.8000        375
 114.9000        335
 115.0000        360
 115.1000        316
 115.2000        373
 115.3000        383
 115.4000        398
 115.5000        392
 115.6000        369
 115.7000        328
 115.8000        353
 115.9000        381
 116.0000        378
 116.1000        366
 116.2000        368
 116.3000        358
 116.4000        363
 116.5000        367
 116.6000        362
 116.7000        363
 116.8000        379
 116.9000        366
 117.0000        362
 117.1000        337
 117.2000        386
 117.3000        369
 117.4000        387
 117.5000        399
 117.6000        372
 117.7000        369
 117.8000        380
 117.9000        351
 118.0000        373
 118.1000        364
 118.2000        377
 118.3000        396
 118.4000        380
 118.5000        384
 118.6000        372
 118.7000        354
 118.8000        394
 118.9000        356
 119.0000        369
 119.1000        394
 119.2000        388
 119.3000        374
 119.4000        388
 119.5000        371
 119.6000        414
 119.7000        370
 119.8000        366
 119.9000        385
 120.0000        335
 120.1000        374
 120.2000        362
 120.3000        374
 120.4000        374
 120.5000        344
 120.6000        374
 120.7000        360
 120.8000        371
 120.9000        385
 121.0000        388
 121.1000        340
 121.2000        395
 121.3000        370
 121.4000        366
 121.5000        371
 121.6000        352
 121.7000        367
 121.8000        384
 121.9000        379
 122.0000        425
 122.1000        441
 122.2000        441
 122.3000        428
 122.4000        406
 122.5000        497
 122.6000        465
 122.7000        438
 122.8000        483
 122.9000        473
 123.0000        499
 123.1000        495
 123.2000        513
 123.3000        508
 123.4000        515
 123.5000        487
 123.6000        502
 123.7000        511
 123.8000        485
 123.9000        484
 124.0000        464
 124.1000        439
 124.2000        397
 124.3000        428
 124.4000        428
 124.5000        391
 124.6000        370
 124.7000        405
 124.8000        380
 124.9000        386
 125.0000        383
 125.1000        361
 125.2000        403
 125.3000        375
 125.4000        393
 125.5000        401
 125.6000        388
 125.7000        366
 125.8000        392
 125.9000        365
 126.0000        360
 126.1000        371
 126.2000        369
 126.3000        379
 126.4000        353
 126.5000        375
 126.6000        387
 126.7000        362
 126.8000        381
 126.9000        350
 127.0000        384
 127.1000        376
 127.2000        380
 127.3000        339
 127.4000        382
 127.5000        400
 127.6000        362
 127.7000        367
 127.8000        387
 127.9000        326
 128.0000        394
 128.1000        399
 128.2000        390
 128.3000        393
 128.4000        373
 128.5000        390
 128.6000        345
 128.7000        388
 128.8000        370
 128.9000        365
 129.0000        375
 129.1000        358
 129.2000        352
 129.3000        348
 129.4000        327
 129.5000        366
 129.6000        374
 129.7000        380
 129.8000        399
 129.9000        379
 130.0000        333