File: exp_dat/old/exp_2013_11_11/25pct_-40G.uxd
; (content of file C:\DIFFDAT1\GIFT\MDL\Seawoong Lee\20131104_MV8\equal_area_maxkhi080_n8_2th40_130_x00y00_-40g.raw)
_FILEVERSION = 3
_SAMPLE =
_+SAMPLE =
_SITE = Korea
_USER = Admin
_GONIOMETER_CODE = 20
; Goniometer : D8 theta/2theta, stage : Unknown
_SAMPLE_CHANGER_CODE = 0
_ATTACHMENTS_CODE = 0
_GONIOMETER_RADIUS = 300
_FIXED_DIVSLIT = 1
_FIXED_SAMPLESLIT = 0
_SOLLER_SLITS = 2
_FIXED_DETSLIT = 0.1
_MONOCHROMATOR = 0
; Incident beam monochromator : None
_SOLLER_SLITS_2 = 2
_THIN_FILM = N
_BETA_FILTER = Y
_FIXED_ANTISLIT = 0.6
_ANALYZER_CODE = 0
; Received beam analyzer : None
_DATEMEASURED = "08-Nov-2013 00:19:36"
_WL_UNIT = A
_WL1 = 1.78897
_WL2 = 1.79285
_WL3 = 1.62079
_WLRATIO = 0.5
_ANODE = Co
_V4_INF_CREATOR = XRDWizard
_V4_INF_CREATOR_VERSION = V2.9.0.22
_V4_INF_WIZARD_VERSION = V2.9.0.22
_V4_INF_WIZARD_ADDINS = V2.9.0.22
_V4_INF_WIZARD_DOCTYPE = XRD
_V4_INF_OSUSER = Postech
_V4_INF_USER = Admin
_V4_INF_SITE = Korea

; Data for range 1
_DRIVE = COUPLED
_STEPTIME = 0.2
_STEPSIZE = 0.1
_STEPMODE = C
_START = 40
_THETA = 20
_2THETA = 40
_KHI = 0
_PHI = 0
_X = 0
_Y = 0
_Z = 0
_DETECTOR = 1
; Detector type : Scintillation counter
_HV = 687
_GAIN = 80
_LLD = 0.69
_ULD = 1.866
_DETECTORSLIT = unkn
_AUX1 = 0
_AUX2 = 0
_AUX3 = 0
_TIMESTARTED = 28
_TEMP_RATE = -1
_TEMP_DELAY = -1
_KV = 35
_MA = 40
_RANGE_WL = 1.78897
_3DPLANE = 0
_V4_ADDITIONALDETECTOR = 0
_V4_D8_DIBNUM = 1
_V4_DETECTORNAME = "Detector 1"
_V4_TTLDETECTOR = None
_V4_DETECTORTYPE = 1
_V4_DETECTORFLAGS = 524545
_V4_DETECTORHV = 687
_V4_DETECTORGAIN = 80
_V4_DETECTORLLD1 = 0.69
_V4_DETECTORWW1 = 1.176
_V4_DETECTORLLD2 = 0
_V4_DETECTORWW2 = 0
_V4_DETECTORPS = 0
_V4_DETECTORDT = 0
_V4_DETECTORPILEUPTIME = 0
_V4_COUNTERS_MASK = 1
_V4_DRIVES_MASK = 0
_V4_ENCODERS_MASK = 0
_2THETACOUNTS = 1
; 2THETA  Cnt1_D1
  40.0000        452
  40.1000        392
  40.2000        444
  40.3000        427
  40.4000        458
  40.5000        426
  40.6000        477
  40.7000        457
  40.8000        430
  40.9000        438
  41.0000        458
  41.1000        444
  41.2000        416
  41.3000        470
  41.4000        459
  41.5000        453
  41.6000        422
  41.7000        446
  41.8000        436
  41.9000        459
  42.0000        510
  42.1000        461
  42.2000        434
  42.3000        459
  42.4000        461
  42.5000        467
  42.6000        464
  42.7000        476
  42.8000        450
  42.9000        444
  43.0000        454
  43.1000        426
  43.2000        453
  43.3000        428
  43.4000        446
  43.5000        438
  43.6000        466
  43.7000        414
  43.8000        442
  43.9000        459
  44.0000        458
  44.1000        431
  44.2000        467
  44.3000        451
  44.4000        469
  44.5000        478
  44.6000        423
  44.7000        467
  44.8000        471
  44.9000        451
  45.0000        461
  45.1000        425
  45.2000        429
  45.3000        469
  45.4000        472
  45.5000        481
  45.6000        487
  45.7000        470
  45.8000        473
  45.9000        479
  46.0000        476
  46.1000        483
  46.2000        478
  46.3000        460
  46.4000        449
  46.5000        461
  46.6000        493
  46.7000        475
  46.8000        472
  46.9000        469
  47.0000        464
  47.1000        455
  47.2000        483
  47.3000        438
  47.4000        473
  47.5000        482
  47.6000        470
  47.7000        489
  47.8000        437
  47.9000        510
  48.0000        483
  48.1000        437
  48.2000        450
  48.3000        483
  48.4000        478
  48.5000        411
  48.6000        475
  48.7000        481
  48.8000        451
  48.9000        481
  49.0000        457
  49.1000        482
  49.2000        511
  49.3000        464
  49.4000        448
  49.5000        466
  49.6000        489
  49.7000        461
  49.8000        488
  49.9000        476
  50.0000        508
  50.1000        495
  50.2000        499
  50.3000        491
  50.4000        505
  50.5000        534
  50.6000        461
  50.7000        492
  50.8000        500
  50.9000        522
  51.0000        522
  51.1000        483
  51.2000        516
  51.3000        539
  51.4000        566
  51.5000        644
  51.6000        706
  51.7000        732
  51.8000        964
  51.9000       1083
  52.0000       1174
  52.1000       1050
  52.2000       1136
  52.3000       1143
  52.4000       1088
  52.5000       1037
  52.6000        902
  52.7000        778
  52.8000        620
  52.9000        511
  53.0000        546
  53.1000        487
  53.2000        539
  53.3000        528
  53.4000        499
  53.5000        485
  53.6000        514
  53.7000        509
  53.8000        513
  53.9000        466
  54.0000        508
  54.1000        484
  54.2000        557
  54.3000        486
  54.4000        496
  54.5000        469
  54.6000        484
  54.7000        477
  54.8000        499
  54.9000        513
  55.0000        506
  55.1000        486
  55.2000        510
  55.3000        505
  55.4000        501
  55.5000        498
  55.6000        459
  55.7000        516
  55.8000        497
  55.9000        509
  56.0000        524
  56.1000        522
  56.2000        506
  56.3000        480
  56.4000        495
  56.5000        514
  56.6000        518
  56.7000        502
  56.8000        510
  56.9000        485
  57.0000        515
  57.1000        489
  57.2000        498
  57.3000        514
  57.4000        512
  57.5000        487
  57.6000        538
  57.7000        495
  57.8000        475
  57.9000        502
  58.0000        531
  58.1000        531
  58.2000        515
  58.3000        518
  58.4000        477
  58.5000        518
  58.6000        469
  58.7000        513
  58.8000        495
  58.9000        516
  59.0000        510
  59.1000        477
  59.2000        517
  59.3000        518
  59.4000        472
  59.5000        483
  59.6000        542
  59.7000        486
  59.8000        499
  59.9000        503
  60.0000        525
  60.1000        487
  60.2000        480
  60.3000        490
  60.4000        514
  60.5000        509
  60.6000        520
  60.7000        527
  60.8000        510
  60.9000        490
  61.0000        505
  61.1000        467
  61.2000        511
  61.3000        544
  61.4000        526
  61.5000        519
  61.6000        487
  61.7000        478
  61.8000        494
  61.9000        488
  62.0000        474
  62.1000        551
  62.2000        488
  62.3000        480
  62.4000        484
  62.5000        510
  62.6000        491
  62.7000        498
  62.8000        510
  62.9000        503
  63.0000        520
  63.1000        527
  63.2000        501
  63.3000        518
  63.4000        485
  63.5000        473
  63.6000        487
  63.7000        519
  63.8000        489
  63.9000        512
  64.0000        490
  64.1000        483
  64.2000        511
  64.3000        469
  64.4000        447
  64.5000        505
  64.6000        499
  64.7000        519
  64.8000        518
  64.9000        514
  65.0000        450
  65.1000        528
  65.2000        515
  65.3000        469
  65.4000        472
  65.5000        522
  65.6000        519
  65.7000        471
  65.8000        483
  65.9000        536
  66.0000        527
  66.1000        514
  66.2000        542
  66.3000        500
  66.4000        483
  66.5000        491
  66.6000        516
  66.7000        467
  66.8000        538
  66.9000        497
  67.0000        494
  67.1000        502
  67.2000        519
  67.3000        467
  67.4000        506
  67.5000        493
  67.6000        497
  67.7000        496
  67.8000        530
  67.9000        496
  68.0000        491
  68.1000        481
  68.2000        536
  68.3000        531
  68.4000        482
  68.5000        528
  68.6000        496
  68.7000        509
  68.8000        476
  68.9000        513
  69.0000        473
  69.1000        558
  69.2000        488
  69.3000        490
  69.4000        530
  69.5000        511
  69.6000        523
  69.7000        549
  69.8000        496
  69.9000        536
  70.0000        457
  70.1000        503
  70.2000        490
  70.3000        511
  70.4000        516
  70.5000        491
  70.6000        488
  70.7000        530
  70.8000        526
  70.9000        471
  71.0000        520
  71.1000        510
  71.2000        512
  71.3000        509
  71.4000        499
  71.5000        504
  71.6000        505
  71.7000        526
  71.8000        514
  71.9000        484
  72.0000        495
  72.1000        492
  72.2000        544
  72.3000        503
  72.4000        518
  72.5000        527
  72.6000        523
  72.7000        487
  72.8000        487
  72.9000        486
  73.0000        535
  73.1000        479
  73.2000        496
  73.3000        509
  73.4000        502
  73.5000        543
  73.6000        536
  73.7000        519
  73.8000        550
  73.9000        549
  74.0000        544
  74.1000        531
  74.2000        505
  74.3000        518
  74.4000        510
  74.5000        480
  74.6000        511
  74.7000        522
  74.8000        510
  74.9000        524
  75.0000        503
  75.1000        507
  75.2000        537
  75.3000        534
  75.4000        542
  75.5000        491
  75.6000        529
  75.7000        522
  75.8000        570
  75.9000        568
  76.0000        642
  76.1000        697
  76.2000        839
  76.3000        954
  76.4000       1020
  76.5000       1170
  76.6000       1218
  76.7000       1254
  76.8000       1256
  76.9000       1266
  77.0000       1263
  77.1000       1174
  77.2000        998
  77.3000        977
  77.4000        819
  77.5000        713
  77.6000        664
  77.7000        623
  77.8000        574
  77.9000        577
  78.0000        574
  78.1000        556
  78.2000        532
  78.3000        521
  78.4000        570
  78.5000        507
  78.6000        495
  78.7000        517
  78.8000        557
  78.9000        526
  79.0000        486
  79.1000        538
  79.2000        481
  79.3000        531
  79.4000        551
  79.5000        496
  79.6000        477
  79.7000        553
  79.8000        511
  79.9000        526
  80.0000        510
  80.1000        519
  80.2000        493
  80.3000        526
  80.4000        528
  80.5000        531
  80.6000        523
  80.7000        517
  80.8000        529
  80.9000        520
  81.0000        488
  81.1000        503
  81.2000        518
  81.3000        497
  81.4000        518
  81.5000        543
  81.6000        516
  81.7000        541
  81.8000        485
  81.9000        497
  82.0000        505
  82.1000        501
  82.2000        538
  82.3000        538
  82.4000        531
  82.5000        543
  82.6000        510
  82.7000        505
  82.8000        517
  82.9000        516
  83.0000        491
  83.1000        529
  83.2000        558
  83.3000        515
  83.4000        532
  83.5000        519
  83.6000        503
  83.7000        522
  83.8000        551
  83.9000        474
  84.0000        504
  84.1000        525
  84.2000        509
  84.3000        520
  84.4000        547
  84.5000        527
  84.6000        494
  84.7000        518
  84.8000        520
  84.9000        534
  85.0000        513
  85.1000        545
  85.2000        471
  85.3000        500
  85.4000        518
  85.5000        499
  85.6000        530
  85.7000        513
  85.8000        499
  85.9000        500
  86.0000        488
  86.1000        516
  86.2000        526
  86.3000        485
  86.4000        564
  86.5000        526
  86.6000        530
  86.7000        525
  86.8000        512
  86.9000        509
  87.0000        500
  87.1000        516
  87.2000        526
  87.3000        514
  87.4000        523
  87.5000        485
  87.6000        536
  87.7000        509
  87.8000        527
  87.9000        465
  88.0000        498
  88.1000        521
  88.2000        534
  88.3000        549
  88.4000        510
  88.5000        459
  88.6000        485
  88.7000        510
  88.8000        480
  88.9000        501
  89.0000        538
  89.1000        536
  89.2000        513
  89.3000        506
  89.4000        509
  89.5000        525
  89.6000        514
  89.7000        478
  89.8000        493
  89.9000        532
  90.0000        505
  90.1000        542
  90.2000        530
  90.3000        475
  90.4000        504
  90.5000        504
  90.6000        502
  90.7000        514
  90.8000        504
  90.9000        507
  91.0000        496
  91.1000        523
  91.2000        518
  91.3000        531
  91.4000        555
  91.5000        531
  91.6000        516
  91.7000        525
  91.8000        495
  91.9000        516
  92.0000        504
  92.1000        521
  92.2000        492
  92.3000        511
  92.4000        472
  92.5000        521
  92.6000        549
  92.7000        475
  92.8000        492
  92.9000        489
  93.0000        504
  93.1000        499
  93.2000        498
  93.3000        535
  93.4000        563
  93.5000        568
  93.6000        529
  93.7000        491
  93.8000        495
  93.9000        463
  94.0000        498
  94.1000        526
  94.2000        562
  94.3000        470
  94.4000        519
  94.5000        487
  94.6000        502
  94.7000        481
  94.8000        506
  94.9000        497
  95.0000        485
  95.1000        504
  95.2000        512
  95.3000        538
  95.4000        473
  95.5000        509
  95.6000        516
  95.7000        533
  95.8000        533
  95.9000        479
  96.0000        524
  96.1000        501
  96.2000        523
  96.3000        508
  96.4000        520
  96.5000        519
  96.6000        501
  96.7000        480
  96.8000        479
  96.9000        535
  97.0000        525
  97.1000        520
  97.2000        533
  97.3000        490
  97.4000        547
  97.5000        532
  97.6000        551
  97.7000        560
  97.8000        580
  97.9000        538
  98.0000        575
  98.1000        575
  98.2000        595
  98.3000        629
  98.4000        705
  98.5000        794
  98.6000        885
  98.7000        974
  98.8000       1183
  98.9000       1350
  99.0000       1450
  99.1000       1577
  99.2000       1621
  99.3000       1545
  99.4000       1579
  99.5000       1432
  99.6000       1330
  99.7000       1195
  99.8000       1037
  99.9000        879
 100.0000        801
 100.1000        698
 100.2000        655
 100.3000        598
 100.4000        611
 100.5000        612
 100.6000        600
 100.7000        543
 100.8000        580
 100.9000        585
 101.0000        517
 101.1000        530
 101.2000        531
 101.3000        556
 101.4000        524
 101.5000        525
 101.6000        521
 101.7000        548
 101.8000        497
 101.9000        480
 102.0000        517
 102.1000        540
 102.2000        519
 102.3000        540
 102.4000        496
 102.5000        547
 102.6000        484
 102.7000        516
 102.8000        520
 102.9000        558
 103.0000        515
 103.1000        504
 103.2000        532
 103.3000        557
 103.4000        530
 103.5000        525
 103.6000        514
 103.7000        508
 103.8000        542
 103.9000        550
 104.0000        509
 104.1000        522
 104.2000        550
 104.3000        502
 104.4000        502
 104.5000        528
 104.6000        509
 104.7000        467
 104.8000        513
 104.9000        502
 105.0000        507
 105.1000        535
 105.2000        515
 105.3000        515
 105.4000        507
 105.5000        559
 105.6000        539
 105.7000        560
 105.8000        519
 105.9000        543
 106.0000        537
 106.1000        519
 106.2000        540
 106.3000        522
 106.4000        513
 106.5000        533
 106.6000        492
 106.7000        504
 106.8000        488
 106.9000        521
 107.0000        481
 107.1000        534
 107.2000        541
 107.3000        482
 107.4000        518
 107.5000        519
 107.6000        533
 107.7000        526
 107.8000        569
 107.9000        516
 108.0000        574
 108.1000        540
 108.2000        523
 108.3000        524
 108.4000        524
 108.5000        497
 108.6000        539
 108.7000        525
 108.8000        508
 108.9000        545
 109.0000        506
 109.1000        518
 109.2000        508
 109.3000        542
 109.4000        517
 109.5000        505
 109.6000        478
 109.7000        487
 109.8000        513
 109.9000        527
 110.0000        533
 110.1000        526
 110.2000        512
 110.3000        473
 110.4000        513
 110.5000        553
 110.6000        498
 110.7000        529
 110.8000        541
 110.9000        533
 111.0000        579
 111.1000        487
 111.2000        511
 111.3000        528
 111.4000        506
 111.5000        543
 111.6000        534
 111.7000        531
 111.8000        517
 111.9000        535
 112.0000        469
 112.1000        535
 112.2000        516
 112.3000        515
 112.4000        481
 112.5000        556
 112.6000        514
 112.7000        510
 112.8000        548
 112.9000        510
 113.0000        526
 113.1000        487
 113.2000        512
 113.3000        510
 113.4000        509
 113.5000        564
 113.6000        545
 113.7000        506
 113.8000        488
 113.9000        504
 114.0000        488
 114.1000        529
 114.2000        531
 114.3000        494
 114.4000        544
 114.5000        546
 114.6000        513
 114.7000        524
 114.8000        509
 114.9000        493
 115.0000        495
 115.1000        493
 115.2000        536
 115.3000        527
 115.4000        571
 115.5000        513
 115.6000        547
 115.7000        505
 115.8000        503
 115.9000        501
 116.0000        481
 116.1000        541
 116.2000        515
 116.3000        504
 116.4000        541
 116.5000        543
 116.6000        534
 116.7000        537
 116.8000        516
 116.9000        474
 117.0000        491
 117.1000        525
 117.2000        499
 117.3000        522
 117.4000        538
 117.5000        489
 117.6000        519
 117.7000        516
 117.8000        507
 117.9000        529
 118.0000        496
 118.1000        480
 118.2000        496
 118.3000        543
 118.4000        517
 118.5000        504
 118.6000        503
 118.7000        534
 118.8000        492
 118.9000        507
 119.0000        497
 119.1000        511
 119.2000        513
 119.3000        495
 119.4000        503
 119.5000        523
 119.6000        507
 119.7000        536
 119.8000        510
 119.9000        520
 120.0000        528
 120.1000        533
 120.2000        470
 120.3000        519
 120.4000        529
 120.5000        511
 120.6000        535
 120.7000        534
 120.8000        509
 120.9000        500
 121.0000        537
 121.1000        505
 121.2000        542
 121.3000        545
 121.4000        478
 121.5000        586
 121.6000        555
 121.7000        544
 121.8000        530
 121.9000        497
 122.0000        515
 122.1000        537
 122.2000        516
 122.3000        520
 122.4000        541
 122.5000        503
 122.6000        491
 122.7000        562
 122.8000        588
 122.9000        534
 123.0000        560
 123.1000        537
 123.2000        582
 123.3000        558
 123.4000        523
 123.5000        547
 123.6000        511
 123.7000        530
 123.8000        561
 123.9000        551
 124.0000        530
 124.1000        554
 124.2000        543
 124.3000        568
 124.4000        534
 124.5000        532
 124.6000        500
 124.7000        507
 124.8000        549
 124.9000        498
 125.0000        510
 125.1000        486
 125.2000        514
 125.3000        510
 125.4000        477
 125.5000        501
 125.6000        495
 125.7000        558
 125.8000        560
 125.9000        516
 126.0000        521
 126.1000        481
 126.2000        492
 126.3000        538
 126.4000        514
 126.5000        516
 126.6000        530
 126.7000        501
 126.8000        481
 126.9000        503
 127.0000        522
 127.1000        546
 127.2000        537
 127.3000        527
 127.4000        538
 127.5000        458
 127.6000        549
 127.7000        556
 127.8000        536
 127.9000        503
 128.0000        492
 128.1000        450
 128.2000        499
 128.3000        499
 128.4000        490
 128.5000        494
 128.6000        522
 128.7000        485
 128.8000        521
 128.9000        538
 129.0000        532
 129.1000        512
 129.2000        487
 129.3000        518
 129.4000        532
 129.5000        556
 129.6000        511
 129.7000        493
 129.8000        499
 129.9000        554
 130.0000        487

; Data for range 2
_DRIVE = COUPLED
_STEPTIME = 0.2
_STEPSIZE = 0.1
_STEPMODE = C
_START = 40
_THETA = 20
_2THETA = 40
_KHI = 10.5
_PHI = 60
_X = 0
_Y = 0
_Z = 0
_DETECTOR = 1
; Detector type : Scintillation counter
_HV = 687
_GAIN = 80
_LLD = 0.69
_ULD = 1.866
_DETECTORSLIT = unkn
_AUX1 = 0
_AUX2 = 0
_AUX3 = 0
_TIMESTARTED = 225
_TEMP_RATE = -1
_TEMP_DELAY = -1
_KV = 35
_MA = 40
_RANGE_WL = 1.78897
_3DPLANE = 0
_V4_ADDITIONALDETECTOR = 0
_V4_D8_DIBNUM = 1
_V4_DETECTORNAME = "Detector 1"
_V4_TTLDETECTOR = None
_V4_DETECTORTYPE = 1
_V4_DETECTORFLAGS = 524545
_V4_DETECTORHV = 687
_V4_DETECTORGAIN = 80
_V4_DETECTORLLD1 = 0.69
_V4_DETECTORWW1 = 1.176
_V4_DETECTORLLD2 = 0
_V4_DETECTORWW2 = 0
_V4_DETECTORPS = 0
_V4_DETECTORDT = 0
_V4_DETECTORPILEUPTIME = 0
_V4_COUNTERS_MASK = 1
_V4_DRIVES_MASK = 0
_V4_ENCODERS_MASK = 0
_2THETACOUNTS = 1
; 2THETA  Cnt1_D1
  40.0000        519
  40.1000        506
  40.2000        519
  40.3000        532
  40.4000        514
  40.5000        480
  40.6000        506
  40.7000        525
  40.8000        530
  40.9000        498
  41.0000        539
  41.1000        544
  41.2000        502
  41.3000        519
  41.4000        484
  41.5000        473
  41.6000        512
  41.7000        535
  41.8000        481
  41.9000        513
  42.0000        482
  42.1000        492
  42.2000        464
  42.3000        507
  42.4000        497
  42.5000        500
  42.6000        521
  42.7000        528
  42.8000        490
  42.9000        510
  43.0000        538
  43.1000        456
  43.2000        481
  43.3000        511
  43.4000        527
  43.5000        543
  43.6000        468
  43.7000        518
  43.8000        509
  43.9000        498
  44.0000        556
  44.1000        512
  44.2000        478
  44.3000        539
  44.4000        490
  44.5000        491
  44.6000        488
  44.7000        517
  44.8000        547
  44.9000        503
  45.0000        510
  45.1000        525
  45.2000        531
  45.3000        523
  45.4000        511
  45.5000        519
  45.6000        497
  45.7000        547
  45.8000        523
  45.9000        511
  46.0000        508
  46.1000        502
  46.2000        506
  46.3000        518
  46.4000        522
  46.5000        561
  46.6000        520
  46.7000        508
  46.8000        523
  46.9000        547
  47.0000        547
  47.1000        502
  47.2000        491
  47.3000        517
  47.4000        474
  47.5000        524
  47.6000        514
  47.7000        488
  47.8000        520
  47.9000        485
  48.0000        503
  48.1000        563
  48.2000        489
  48.3000        523
  48.4000        495
  48.5000        478
  48.6000        490
  48.7000        511
  48.8000        533
  48.9000        474
  49.0000        514
  49.1000        485
  49.2000        554
  49.3000        526
  49.4000        547
  49.5000        497
  49.6000        544
  49.7000        541
  49.8000        518
  49.9000        529
  50.0000        537
  50.1000        543
  50.2000        498
  50.3000        469
  50.4000        503
  50.5000        532
  50.6000        561
  50.7000        526
  50.8000        532
  50.9000        515
  51.0000        501
  51.1000        527
  51.2000        560
  51.3000        581
  51.4000        613
  51.5000        708
  51.6000        814
  51.7000        966
  51.8000       1155
  51.9000       1301
  52.0000       1316
  52.1000       1368
  52.2000       1408
  52.3000       1343
  52.4000       1264
  52.5000       1111
  52.6000        922
  52.7000        794
  52.8000        684
  52.9000        572
  53.0000        580
  53.1000        593
  53.2000        532
  53.3000        572
  53.4000        539
  53.5000        523
  53.6000        516
  53.7000        559
  53.8000        534
  53.9000        530
  54.0000        455
  54.1000        483
  54.2000        520
  54.3000        549
  54.4000        486
  54.5000        511
  54.6000        529
  54.7000        514
  54.8000        535
  54.9000        507
  55.0000        502
  55.1000        480
  55.2000        515
  55.3000        511
  55.4000        477
  55.5000        504
  55.6000        529
  55.7000        506
  55.8000        501
  55.9000        544
  56.0000        503
  56.1000        527
  56.2000        521
  56.3000        529
  56.4000        507
  56.5000        512
  56.6000        524
  56.7000        551
  56.8000        522
  56.9000        508
  57.0000        535
  57.1000        470
  57.2000        500
  57.3000        516
  57.4000        467
  57.5000        544
  57.6000        518
  57.7000        534
  57.8000        526
  57.9000        546
  58.0000        501
  58.1000        534
  58.2000        519
  58.3000        545
  58.4000        517
  58.5000        507
  58.6000        493
  58.7000        486
  58.8000        479
  58.9000        507
  59.0000        491
  59.1000        528
  59.2000        513
  59.3000        499
  59.4000        478
  59.5000        499
  59.6000        540
  59.7000        531
  59.8000        519
  59.9000        513
  60.0000        487
  60.1000        504
  60.2000        501
  60.3000        503
  60.4000        514
  60.5000        527
  60.6000        523
  60.7000        493
  60.8000        559
  60.9000        493
  61.0000        518
  61.1000        506
  61.2000        541
  61.3000        523
  61.4000        500
  61.5000        526
  61.6000        565
  61.7000        486
  61.8000        533
  61.9000        521
  62.0000        494
  62.1000        524
  62.2000        506
  62.3000        510
  62.4000        544
  62.5000        506
  62.6000        536
  62.7000        514
  62.8000        555
  62.9000        518
  63.0000        535
  63.1000        514
  63.2000        513
  63.3000        527
  63.4000        530
  63.5000        511
  63.6000        504
  63.7000        512
  63.8000        486
  63.9000        485
  64.0000        521
  64.1000        504
  64.2000        499
  64.3000        514
  64.4000        489
  64.5000        510
  64.6000        528
  64.7000        483
  64.8000        511
  64.9000        509
  65.0000        561
  65.1000        504
  65.2000        530
  65.3000        525
  65.4000        522
  65.5000        514
  65.6000        529
  65.7000        528
  65.8000        497
  65.9000        504
  66.0000        532
  66.1000        509
  66.2000        513
  66.3000        508
  66.4000        485
  66.5000        479
  66.6000        505
  66.7000        523
  66.8000        509
  66.9000        511
  67.0000        506
  67.1000        511
  67.2000        516
  67.3000        494
  67.4000        490
  67.5000        527
  67.6000        499
  67.7000        530
  67.8000        483
  67.9000        509
  68.0000        539
  68.1000        469
  68.2000        479
  68.3000        511
  68.4000        502
  68.5000        498
  68.6000        513
  68.7000        517
  68.8000        523
  68.9000        529
  69.0000        523
  69.1000        487
  69.2000        496
  69.3000        479
  69.4000        548
  69.5000        510
  69.6000        488
  69.7000        514
  69.8000        504
  69.9000        521
  70.0000        510
  70.1000        508
  70.2000        507
  70.3000        538
  70.4000        490
  70.5000        526
  70.6000        490
  70.7000        516
  70.8000        509
  70.9000        473
  71.0000        510
  71.1000        507
  71.2000        526
  71.3000        479
  71.4000        465
  71.5000        490
  71.6000        538
  71.7000        522
  71.8000        552
  71.9000        477
  72.0000        528
  72.1000        510
  72.2000        468
  72.3000        522
  72.4000        488
  72.5000        527
  72.6000        512
  72.7000        486
  72.8000        479
  72.9000        471
  73.0000        509
  73.1000        481
  73.2000        532
  73.3000        497
  73.4000        550
  73.5000        508
  73.6000        538
  73.7000        511
  73.8000        501
  73.9000        531
  74.0000        521
  74.1000        465
  74.2000        559
  74.3000        507
  74.4000        499
  74.5000        532
  74.6000        582
  74.7000        523
  74.8000        473
  74.9000        511
  75.0000        527
  75.1000        500
  75.2000        550
  75.3000        521
  75.4000        512
  75.5000        495
  75.6000        508
  75.7000        516
  75.8000        543
  75.9000        569
  76.0000        592
  76.1000        597
  76.2000        624
  76.3000        631
  76.4000        700
  76.5000        741
  76.6000        803
  76.7000        807
  76.8000        790
  76.9000        798
  77.0000        770
  77.1000        775
  77.2000        706
  77.3000        650
  77.4000        667
  77.5000        563
  77.6000        576
  77.7000        571
  77.8000        594
  77.9000        554
  78.0000        521
  78.1000        506
  78.2000        514
  78.3000        573
  78.4000        528
  78.5000        524
  78.6000        517
  78.7000        516
  78.8000        533
  78.9000        545
  79.0000        530
  79.1000        510
  79.2000        493
  79.3000        542
  79.4000        474
  79.5000        528
  79.6000        535
  79.7000        500
  79.8000        549
  79.9000        545
  80.0000        460
  80.1000        512
  80.2000        521
  80.3000        497
  80.4000        535
  80.5000        499
  80.6000        469
  80.7000        481
  80.8000        503
  80.9000        517
  81.0000        473
  81.1000        518
  81.2000        479
  81.3000        490
  81.4000        530
  81.5000        513
  81.6000        521
  81.7000        501
  81.8000        480
  81.9000        494
  82.0000        499
  82.1000        485
  82.2000        509
  82.3000        539
  82.4000        479
  82.5000        532
  82.6000        501
  82.7000        507
  82.8000        488
  82.9000        511
  83.0000        524
  83.1000        464
  83.2000        500
  83.3000        527
  83.4000        490
  83.5000        546
  83.6000        529
  83.7000        460
  83.8000        498
  83.9000        545
  84.0000        550
  84.1000        515
  84.2000        490
  84.3000        505
  84.4000        502
  84.5000        504
  84.6000        462
  84.7000        474
  84.8000        494
  84.9000        476
  85.0000        490
  85.1000        468
  85.2000        493
  85.3000        500
  85.4000        484
  85.5000        545
  85.6000        476
  85.7000        524
  85.8000        522
  85.9000        495
  86.0000        556
  86.1000        517
  86.2000        560
  86.3000        525
  86.4000        532
  86.5000        482
  86.6000        482
  86.7000        504
  86.8000        512
  86.9000        499
  87.0000        520
  87.1000        559
  87.2000        496
  87.3000        490
  87.4000        518
  87.5000        488
  87.6000        548
  87.7000        510
  87.8000        543
  87.9000        481
  88.0000        520
  88.1000        529
  88.2000        503
  88.3000        510
  88.4000        502
  88.5000        510
  88.6000        506
  88.7000        533
  88.8000        514
  88.9000        498
  89.0000        507
  89.1000        537
  89.2000        498
  89.3000        526
  89.4000        506
  89.5000        524
  89.6000        503
  89.7000        494
  89.8000        490
  89.9000        553
  90.0000        459
  90.1000        510
  90.2000        498
  90.3000        503
  90.4000        514
  90.5000        507
  90.6000        513
  90.7000        505
  90.8000        502
  90.9000        521
  91.0000        493
  91.1000        524
  91.2000        501
  91.3000        490
  91.4000        506
  91.5000        510
  91.6000        527
  91.7000        486
  91.8000        519
  91.9000        497
  92.0000        547
  92.1000        488
  92.2000        512
  92.3000        495
  92.4000        548
  92.5000        483
  92.6000        506
  92.7000        530
  92.8000        508
  92.9000        493
  93.0000        532
  93.1000        508
  93.2000        480
  93.3000        520
  93.4000        530
  93.5000        528
  93.6000        509
  93.7000        494
  93.8000        558
  93.9000        505
  94.0000        476
  94.1000        538
  94.2000        472
  94.3000        523
  94.4000        499
  94.5000        523
  94.6000        518
  94.7000        452
  94.8000        521
  94.9000        514
  95.0000        504
  95.1000        539
  95.2000        479
  95.3000        515
  95.4000        528
  95.5000        531
  95.6000        521
  95.7000        505
  95.8000        508
  95.9000        531
  96.0000        545
  96.1000        489
  96.2000        506
  96.3000        474
  96.4000        527
  96.5000        521
  96.6000        516
  96.7000        535
  96.8000        524
  96.9000        495
  97.0000        516
  97.1000        509
  97.2000        527
  97.3000        518
  97.4000        533
  97.5000        537
  97.6000        515
  97.7000        507
  97.8000        503
  97.9000        547
  98.0000        511
  98.1000        542
  98.2000        568
  98.3000        586
  98.4000        594
  98.5000        674
  98.6000        701
  98.7000        693
  98.8000        772
  98.9000        866
  99.0000        963
  99.1000        962
  99.2000        976
  99.3000       1028
  99.4000       1022
  99.5000        969
  99.6000        908
  99.7000        884
  99.8000        858
  99.9000        723
 100.0000        689
 100.1000        642
 100.2000        575
 100.3000        598
 100.4000        545
 100.5000        580
 100.6000        533
 100.7000        574
 100.8000        492
 100.9000        517
 101.0000        516
 101.1000        549
 101.2000        539
 101.3000        487
 101.4000        544
 101.5000        543
 101.6000        515
 101.7000        520
 101.8000        501
 101.9000        504
 102.0000        513
 102.1000        536
 102.2000        490
 102.3000        482
 102.4000        552
 102.5000        534
 102.6000        517
 102.7000        504
 102.8000        503
 102.9000        535
 103.0000        517
 103.1000        496
 103.2000        520
 103.3000        468
 103.4000        517
 103.5000        489
 103.6000        468
 103.7000        476
 103.8000        517
 103.9000        485
 104.0000        503
 104.1000        524
 104.2000        481
 104.3000        487
 104.4000        536
 104.5000        497
 104.6000        546
 104.7000        459
 104.8000        526
 104.9000        496
 105.0000        471
 105.1000        515
 105.2000        520
 105.3000        513
 105.4000        552
 105.5000        504
 105.6000        529
 105.7000        516
 105.8000        517
 105.9000        523
 106.0000        506
 106.1000        562
 106.2000        524
 106.3000        487
 106.4000        527
 106.5000        515
 106.6000        452
 106.7000        519
 106.8000        511
 106.9000        462
 107.0000        505
 107.1000        568
 107.2000        500
 107.3000        532
 107.4000        500
 107.5000        447
 107.6000        490
 107.7000        477
 107.8000        513
 107.9000        532
 108.0000        506
 108.1000        484
 108.2000        458
 108.3000        476
 108.4000        490
 108.5000        513
 108.6000        502
 108.7000        495
 108.8000        512
 108.9000        541
 109.0000        480
 109.1000        541
 109.2000        525
 109.3000        515
 109.4000        514
 109.5000        476
 109.6000        500
 109.7000        471
 109.8000        531
 109.9000        505
 110.0000        524
 110.1000        470
 110.2000        469
 110.3000        529
 110.4000        499
 110.5000        520
 110.6000        517
 110.7000        508
 110.8000        489
 110.9000        491
 111.0000        512
 111.1000        528
 111.2000        501
 111.3000        495
 111.4000        512
 111.5000        536
 111.6000        497
 111.7000        494
 111.8000        477
 111.9000        498
 112.0000        468
 112.1000        517
 112.2000        478
 112.3000        504
 112.4000        466
 112.5000        527
 112.6000        530
 112.7000        522
 112.8000        470
 112.9000        521
 113.0000        511
 113.1000        540
 113.2000        511
 113.3000        532
 113.4000        461
 113.5000        515
 113.6000        510
 113.7000        544
 113.8000        495
 113.9000        547
 114.0000        525
 114.1000        540
 114.2000        497
 114.3000        521
 114.4000        520
 114.5000        519
 114.6000        550
 114.7000        447
 114.8000        501
 114.9000        530
 115.0000        538
 115.1000        540
 115.2000        563
 115.3000        510
 115.4000        469
 115.5000        465
 115.6000        500
 115.7000        559
 115.8000        496
 115.9000        514
 116.0000        530
 116.1000        542
 116.2000        516
 116.3000        514
 116.4000        499
 116.5000        489
 116.6000        511
 116.7000        556
 116.8000        523
 116.9000        540
 117.0000        514
 117.1000        474
 117.2000        515
 117.3000        464
 117.4000        504
 117.5000        501
 117.6000        538
 117.7000        504
 117.8000        549
 117.9000        501
 118.0000        514
 118.1000        519
 118.2000        492
 118.3000        507
 118.4000        527
 118.5000        543
 118.6000        562
 118.7000        501
 118.8000        524
 118.9000        515
 119.0000        560
 119.1000        522
 119.2000        514
 119.3000        520
 119.4000        508
 119.5000        538
 119.6000        510
 119.7000        534
 119.8000        505
 119.9000        514
 120.0000        478
 120.1000        550
 120.2000        532
 120.3000        513
 120.4000        503
 120.5000        497
 120.6000        522
 120.7000        507
 120.8000        549
 120.9000        530
 121.0000        541
 121.1000        501
 121.2000        497
 121.3000        508
 121.4000        512
 121.5000        482
 121.6000        475
 121.7000        508
 121.8000        518
 121.9000        513
 122.0000        520
 122.1000        540
 122.2000        516
 122.3000        558
 122.4000        528
 122.5000        554
 122.6000        585
 122.7000        538
 122.8000        582
 122.9000        576
 123.0000        569
 123.1000        558
 123.2000        557
 123.3000        617
 123.4000        597
 123.5000        556
 123.6000        582
 123.7000        573
 123.8000        536
 123.9000        531
 124.0000        556
 124.1000        514
 124.2000        533
 124.3000        529
 124.4000        530
 124.5000        528
 124.6000        516
 124.7000        539
 124.8000        502
 124.9000        550
 125.0000        529
 125.1000        511
 125.2000        505
 125.3000        499
 125.4000        557
 125.5000        539
 125.6000        479
 125.7000        523
 125.8000        508
 125.9000        531
 126.0000        507
 126.1000        504
 126.2000        550
 126.3000        507
 126.4000        498
 126.5000        490
 126.6000        539
 126.7000        522
 126.8000        489
 126.9000        505
 127.0000        497
 127.1000        493
 127.2000        493
 127.3000        503
 127.4000        489
 127.5000        509
 127.6000        488
[...]
 129.1000        384
 129.2000        421
 129.3000        406
 129.4000        346
 129.5000        426
 129.6000        376
 129.7000        464
 129.8000        453
 129.9000        390
 130.0000        433

; Data for range 53
_DRIVE = COUPLED
_STEPTIME = 0.2
_STEPSIZE = 0.1
_STEPMODE = C
_START = 40
_THETA = 20
_2THETA = 40
_KHI = 80
_PHI = 0
_X = 0
_Y = 0
_Z = 0
_DETECTOR = 1
; Detector type : Scintillation counter
_HV = 687
_GAIN = 80
_LLD = 0.69
_ULD = 1.866
_DETECTORSLIT = unkn
_AUX1 = 0
_AUX2 = 0
_AUX3 = 0
_TIMESTARTED = 1.03e+004
_TEMP_RATE = -1
_TEMP_DELAY = -1
_KV = 35
_MA = 40
_RANGE_WL = 1.78897
_3DPLANE = 0
_V4_ADDITIONALDETECTOR = 0
_V4_D8_DIBNUM = 1
_V4_DETECTORNAME = "Detector 1"
_V4_TTLDETECTOR = None
_V4_DETECTORTYPE = 1
_V4_DETECTORFLAGS = 524545
_V4_DETECTORHV = 687
_V4_DETECTORGAIN = 80
_V4_DETECTORLLD1 = 0.69
_V4_DETECTORWW1 = 1.176
_V4_DETECTORLLD2 = 0
_V4_DETECTORWW2 = 0
_V4_DETECTORPS = 0
_V4_DETECTORDT = 0
_V4_DETECTORPILEUPTIME = 0
_V4_COUNTERS_MASK = 1
_V4_DRIVES_MASK = 0
_V4_ENCODERS_MASK = 0
_2THETACOUNTS = 1
; 2THETA  Cnt1_D1
  40.0000        161
  40.1000        158
  40.2000        141
  40.3000        151
  40.4000        130
  40.5000        127
  40.6000        128
  40.7000        167
  40.8000        173
  40.9000        148
  41.0000        182
  41.1000        144
  41.2000        123
  41.3000        163
  41.4000        143
  41.5000        146
  41.6000        136
  41.7000        148
  41.8000        140
  41.9000        168
  42.0000        162
  42.1000        155
  42.2000        150
  42.3000        164
  42.4000        168
  42.5000        177
  42.6000        193
  42.7000        246
  42.8000        205
  42.9000        235
  43.0000        266
  43.1000        246
  43.2000        252
  43.3000        264
  43.4000        248
  43.5000        234
  43.6000        226
  43.7000        228
  43.8000        248
  43.9000        211
  44.0000        172
  44.1000        176
  44.2000        180
  44.3000        169
  44.4000        159
  44.5000        163
  44.6000        149
  44.7000        167
  44.8000        157
  44.9000        156
  45.0000        169
  45.1000        138
  45.2000        141
  45.3000        180
  45.4000        168
  45.5000        175
  45.6000        157
  45.7000        162
  45.8000        183
  45.9000        148
  46.0000        159
  46.1000        140
  46.2000        157
  46.3000        165
  46.4000        155
  46.5000        152
  46.6000        193
  46.7000        153
  46.8000        170
  46.9000        147
  47.0000        161
  47.1000        148
  47.2000        176
  47.3000        157
  47.4000        164
  47.5000        171
  47.6000        160
  47.7000        167
  47.8000        188
  47.9000        166
  48.0000        170
  48.1000        181
  48.2000        164
  48.3000        152
  48.4000        172
  48.5000        158
  48.6000        171
  48.7000        182
  48.8000        163
  48.9000        164
  49.0000        174
  49.1000        158
  49.2000        197
  49.3000        177
  49.4000        172
  49.5000        196
  49.6000        179
  49.7000        200
  49.8000        192
  49.9000        210
  50.0000        227
  50.1000        235
  50.2000        263
  50.3000        229
  50.4000        188
  50.5000        242
  50.6000        226
  50.7000        235
  50.8000        222
  50.9000        196
  51.0000        198
  51.1000        219
  51.2000        233
  51.3000        261
  51.4000        249
  51.5000        293
  51.6000        367
  51.7000        476
  51.8000        507
  51.9000        605
  52.0000        690
  52.1000        712
  52.2000        858
  52.3000        861
  52.4000        821
  52.5000        837
  52.6000        790
  52.7000        748
  52.8000        738
  52.9000        618
  53.0000        506
  53.1000        511
  53.2000        404
  53.3000        330
  53.4000        298
  53.5000        234
  53.6000        194
  53.7000        212
  53.8000        198
  53.9000        197
  54.0000        169
  54.1000        178
  54.2000        209
  54.3000        189
  54.4000        177
  54.5000        179
  54.6000        175
  54.7000        184
  54.8000        198
  54.9000        185
  55.0000        197
  55.1000        172
  55.2000        166
  55.3000        203
  55.4000        192
  55.5000        171
  55.6000        194
  55.7000        201
  55.8000        194
  55.9000        193
  56.0000        199
  56.1000        201
  56.2000        169
  56.3000        186
  56.4000        161
  56.5000        194
  56.6000        207
  56.7000        181
  56.8000        188
  56.9000        207
  57.0000        177
  57.1000        186
  57.2000        188
  57.3000        190
  57.4000        204
  57.5000        187
  57.6000        204
  57.7000        180
  57.8000        186
  57.9000        195
  58.0000        160
  58.1000        190
  58.2000        202
  58.3000        194
  58.4000        228
  58.5000        167
  58.6000        214
  58.7000        204
  58.8000        184
  58.9000        212
  59.0000        198
  59.1000        167
  59.2000        192
  59.3000        203
  59.4000        201
  59.5000        188
  59.6000        184
  59.7000        196
  59.8000        175
  59.9000        201
  60.0000        187
  60.1000        181
  60.2000        214
  60.3000        207
  60.4000        207
  60.5000        187
  60.6000        176
  60.7000        168
  60.8000        228
  60.9000        201
  61.0000        197
  61.1000        202
  61.2000        219
  61.3000        197
  61.4000        186
  61.5000        207
  61.6000        192
  61.7000        204
  61.8000        192
  61.9000        185
  62.0000        192
  62.1000        192
  62.2000        212
  62.3000        195
  62.4000        197
  62.5000        197
  62.6000        178
  62.7000        207
  62.8000        214
  62.9000        209
  63.0000        181
  63.1000        217
  63.2000        201
  63.3000        159
  63.4000        188
  63.5000        208
  63.6000        203
  63.7000        203
  63.8000        186
  63.9000        193
  64.0000        184
  64.1000        231
  64.2000        210
  64.3000        187
  64.4000        183
  64.5000        233
  64.6000        225
  64.7000        225
  64.8000        181
  64.9000        209
  65.0000        207
  65.1000        201
  65.2000        182
  65.3000        195
  65.4000        204
  65.5000        196
  65.6000        211
  65.7000        237
  65.8000        220
  65.9000        218
  66.0000        207
  66.1000        231
  66.2000        198
  66.3000        221
  66.4000        209
  66.5000        227
  66.6000        202
  66.7000        200
  66.8000        197
  66.9000        203
  67.0000        194
  67.1000        190
  67.2000        209
  67.3000        196
  67.4000        218
  67.5000        202
  67.6000        205
  67.7000        188
  67.8000        207
  67.9000        219
  68.0000        197
  68.1000        215
  68.2000        207
  68.3000        196
  68.4000        198
  68.5000        201
  68.6000        189
  68.7000        212
  68.8000        220
  68.9000        232
  69.0000        184
  69.1000        211
  69.2000        206
  69.3000        207
  69.4000        232
  69.5000        193
  69.6000        203
  69.7000        219
  69.8000        237
  69.9000        199
  70.0000        199
  70.1000        222
  70.2000        201
  70.3000        212
  70.4000        222
  70.5000        206
  70.6000        243
  70.7000        197
  70.8000        201
  70.9000        211
  71.0000        215
  71.1000        212
  71.2000        217
  71.3000        217
  71.4000        202
  71.5000        227
  71.6000        232
  71.7000        233
  71.8000        194
  71.9000        208
  72.0000        212
  72.1000        214
  72.2000        225
  72.3000        190
  72.4000        227
  72.5000        235
  72.6000        230
  72.7000        248
  72.8000        212
  72.9000        244
  73.0000        232
  73.1000        234
  73.2000        223
  73.3000        262
  73.4000        225
  73.5000        225
  73.6000        221
  73.7000        216
  73.8000        210
  73.9000        228
  74.0000        209
  74.1000        244
  74.2000        231
  74.3000        224
  74.4000        231
  74.5000        242
  74.6000        209
  74.7000        224
  74.8000        247
  74.9000        214
  75.0000        267
  75.1000        230
  75.2000        246
  75.3000        233
  75.4000        250
  75.5000        251
  75.6000        254
  75.7000        261
  75.8000        213
  75.9000        245
  76.0000        260
  76.1000        260
  76.2000        292
  76.3000        295
  76.4000        267
  76.5000        282
  76.6000        306
  76.7000        293
  76.8000        258
  76.9000        287
  77.0000        287
  77.1000        272
  77.2000        297
  77.3000        281
  77.4000        270
  77.5000        263
  77.6000        256
  77.7000        257
  77.8000        247
  77.9000        273
  78.0000        244
  78.1000        245
  78.2000        234
  78.3000        226
  78.4000        242
  78.5000        235
  78.6000        241
  78.7000        262
  78.8000        228
  78.9000        255
  79.0000        232
  79.1000        244
  79.2000        269
  79.3000        210
  79.4000        255
  79.5000        261
  79.6000        223
  79.7000        260
  79.8000        231
  79.9000        232
  80.0000        226
  80.1000        264
  80.2000        233
  80.3000        240
  80.4000        205
  80.5000        248
  80.6000        251
  80.7000        223
  80.8000        257
  80.9000        270
  81.0000        280
  81.1000        238
  81.2000        236
  81.3000        220
  81.4000        243
  81.5000        233
  81.6000        243
  81.7000        266
  81.8000        258
  81.9000        238
  82.0000        250
  82.1000        254
  82.2000        216
  82.3000        270
  82.4000        244
  82.5000        237
  82.6000        275
  82.7000        250
  82.8000        226
  82.9000        249
  83.0000        247
  83.1000        250
  83.2000        236
  83.3000        237
  83.4000        231
  83.5000        235
  83.6000        242
  83.7000        238
  83.8000        236
  83.9000        246
  84.0000        215
  84.1000        247
  84.2000        241
  84.3000        255
  84.4000        238
  84.5000        270
  84.6000        268
  84.7000        248
  84.8000        239
  84.9000        253
  85.0000        234
  85.1000        259
  85.2000        274
  85.3000        267
  85.4000        245
  85.5000        242
  85.6000        255
  85.7000        232
  85.8000        240
  85.9000        260
  86.0000        240
  86.1000        261
  86.2000        266
  86.3000        243
  86.4000        271
  86.5000        277
  86.6000        244
  86.7000        236
  86.8000        247
  86.9000        266
  87.0000        268
  87.1000        288
  87.2000        268
  87.3000        255
  87.4000        272
  87.5000        275
  87.6000        268
  87.7000        257
  87.8000        247
  87.9000        243
  88.0000        256
  88.1000        279
  88.2000        247
  88.3000        242
  88.4000        266
  88.5000        289
  88.6000        237
  88.7000        268
  88.8000        244
  88.9000        277
  89.0000        275
  89.1000        233
  89.2000        262
  89.3000        235
  89.4000        293
  89.5000        302
  89.6000        257
  89.7000        265
  89.8000        272
  89.9000        288
  90.0000        251
  90.1000        255
  90.2000        267
  90.3000        244
  90.4000        257
  90.5000        295
  90.6000        276
  90.7000        306
  90.8000        273
  90.9000        320
  91.0000        283
  91.1000        296
  91.2000        245
  91.3000        266
  91.4000        275
  91.5000        298
  91.6000        280
  91.7000        279
  91.8000        294
  91.9000        278
  92.0000        297
  92.1000        264
  92.2000        290
  92.3000        326
  92.4000        271
  92.5000        270
  92.6000        268
  92.7000        273
  92.8000        276
  92.9000        252
  93.0000        275
  93.1000        270
  93.2000        248
  93.3000        284
  93.4000        264
  93.5000        269
  93.6000        252
  93.7000        279
  93.8000        268
  93.9000        262
  94.0000        288
  94.1000        262
  94.2000        275
  94.3000        282
  94.4000        263
  94.5000        323
  94.6000        274
  94.7000        288
  94.8000        276
  94.9000        251
  95.0000        285
  95.1000        271
  95.2000        267
  95.3000        294
  95.4000        308
  95.5000        274
  95.6000        268
  95.7000        288
  95.8000        247
  95.9000        285
  96.0000        295
  96.1000        277
  96.2000        296
  96.3000        295
  96.4000        312
  96.5000        284
  96.6000        310
  96.7000        291
  96.8000        284
  96.9000        277
  97.0000        294
  97.1000        277
  97.2000        306
  97.3000        285
  97.4000        306
  97.5000        289
  97.6000        290
  97.7000        338
  97.8000        302
  97.9000        316
  98.0000        345
  98.1000        305
  98.2000        351
  98.3000        359
  98.4000        406
  98.5000        379
  98.6000        425
  98.7000        459
  98.8000        455
  98.9000        502
  99.0000        556
  99.1000        585
  99.2000        510
  99.3000        569
  99.4000        511
  99.5000        513
  99.6000        544
  99.7000        454
  99.8000        480
  99.9000        479
 100.0000        450
 100.1000        455
 100.2000        435
 100.3000        387
 100.4000        361
 100.5000        371
 100.6000        341
 100.7000        351
 100.8000        324
 100.9000        292
 101.0000        296
 101.1000        312
 101.2000        293
 101.3000        299
 101.4000        298
 101.5000        285
 101.6000        290
 101.7000        336
 101.8000        294
 101.9000        295
 102.0000        288
 102.1000        268
 102.2000        292
 102.3000        337
 102.4000        277
 102.5000        320
 102.6000        316
 102.7000        302
 102.8000        310
 102.9000        310
 103.0000        312
 103.1000        318
 103.2000        315
 103.3000        295
 103.4000        332
 103.5000        308
 103.6000        279
 103.7000        311
 103.8000        300
 103.9000        324
 104.0000        276
 104.1000        282
 104.2000        301
 104.3000        306
 104.4000        312
 104.5000        325
 104.6000        310
 104.7000        325
 104.8000        333
 104.9000        345
 105.0000        294
 105.1000        298
 105.2000        331
 105.3000        294
 105.4000        298
 105.5000        328
 105.6000        318
 105.7000        283
 105.8000        353
 105.9000        334
 106.0000        305
 106.1000        311
 106.2000        336
 106.3000        327
 106.4000        315
 106.5000        324
 106.6000        308
 106.7000        310
 106.8000        325
 106.9000        313
 107.0000        318
 107.1000        310
 107.2000        340
 107.3000        339
 107.4000        296
 107.5000        331
 107.6000        305
 107.7000        337
 107.8000        336
 107.9000        331
 108.0000        338
 108.1000        302
 108.2000        359
 108.3000        295
 108.4000        315
 108.5000        325
 108.6000        337
 108.7000        340
 108.8000        310
 108.9000        310
 109.0000        346
 109.1000        323
 109.2000        314
 109.3000        322
 109.4000        322
 109.5000        346
 109.6000        360
 109.7000        330
 109.8000        323
 109.9000        331
 110.0000        313
 110.1000        336
 110.2000        322
 110.3000        351
 110.4000        330
 110.5000        321
 110.6000        353
 110.7000        352
 110.8000        322
 110.9000        340
 111.0000        354
 111.1000        327
 111.2000        312
 111.3000        358
 111.4000        320
 111.5000        368
 111.6000        328
 111.7000        340
 111.8000        351
 111.9000        340
 112.0000        322
 112.1000        342
 112.2000        356
 112.3000        334
 112.4000        379
 112.5000        366
 112.6000        353
 112.7000        334
 112.8000        341
 112.9000        340
 113.0000        338
 113.1000        346
 113.2000        318
 113.3000        365
 113.4000        347
 113.5000        346
 113.6000        356
 113.7000        354
 113.8000        354
 113.9000        368
 114.0000        342
 114.1000        345
 114.2000        360
 114.3000        370
 114.4000        316
 114.5000        337
 114.6000        333
 114.7000        358
 114.8000        392
 114.9000        352
 115.0000        350
 115.1000        345
 115.2000        362
 115.3000        355
 115.4000        372
 115.5000        377
 115.6000        327
 115.7000        357
 115.8000        301
 115.9000        361
 116.0000        337
 116.1000        338
 116.2000        357
 116.3000        357
 116.4000        313
 116.5000        386
 116.6000        367
 116.7000        378
 116.8000        374
 116.9000        377
 117.0000        361
 117.1000        333
 117.2000        400
 117.3000        363
 117.4000        359
 117.5000        317
 117.6000        365
 117.7000        374
 117.8000        334
 117.9000        387
 118.0000        348
 118.1000        351
 118.2000        340
 118.3000        361
 118.4000        376
 118.5000        356
 118.6000        339
 118.7000        351
 118.8000        360
 118.9000        370
 119.0000        404
 119.1000        360
 119.2000        378
 119.3000        351
 119.4000        359
 119.5000        361
 119.6000        371
 119.7000        342
 119.8000        341
 119.9000        355
 120.0000        371
 120.1000        399
 120.2000        349
 120.3000        359
 120.4000        376
 120.5000        375
 120.6000        358
 120.7000        349
 120.8000        378
 120.9000        397
 121.0000        377
 121.1000        367
 121.2000        360
 121.3000        373
 121.4000        376
 121.5000        396
 121.6000        387
 121.7000        385
 121.8000        373
 121.9000        411
 122.0000        419
 122.1000        399
 122.2000        381
 122.3000        411
 122.4000        410
 122.5000        440
 122.6000        462
 122.7000        440
 122.8000        462
 122.9000        505
 123.0000        505
 123.1000        455
 123.2000        494
 123.3000        501
 123.4000        499
 123.5000        478
 123.6000        468
 123.7000        488
 123.8000        492
 123.9000        501
 124.0000        483
 124.1000        446
 124.2000        453
 124.3000        421
 124.4000        437
 124.5000        458
 124.6000        420
 124.7000        410
 124.8000        401
 124.9000        393
 125.0000        417
 125.1000        417
 125.2000        355
 125.3000        387
 125.4000        354
 125.5000        397
 125.6000        452
 125.7000        395
 125.8000        396
 125.9000        414
 126.0000        390
 126.1000        407
 126.2000        379
 126.3000        369
 126.4000        395
 126.5000        398
 126.6000        398
 126.7000        391
 126.8000        402
 126.9000        358
 127.0000        379
 127.1000        376
 127.2000        385
 127.3000        393
 127.4000        391
 127.5000        410
 127.6000        329
 127.7000        431
 127.8000        417
 127.9000        408
 128.0000        369
 128.1000        383
 128.2000        385
 128.3000        422
 128.4000        371
 128.5000        385
 128.6000        395
 128.7000        388
 128.8000        383
 128.9000        365
 129.0000        381
 129.1000        367
 129.2000        405
 129.3000        385
 129.4000        388
 129.5000        426
 129.6000        418
 129.7000        414
 129.8000        426
 129.9000        396
 130.0000        370