File: exp_dat/old/exp_2013_11_11/26pct_-50L.uxd
; (content of file C:\DIFFDAT1\GIFT\MDL\Seawoong Lee\20131104_MV8\equal_area_maxkhi080_n8_2th40_130_x25y25_-50L.raw)
_FILEVERSION = 3
_SAMPLE =
_+SAMPLE =
_SITE = Korea
_USER = Admin
_GONIOMETER_CODE = 20
; Goniometer : D8 theta/2theta, stage : Unknown
_SAMPLE_CHANGER_CODE = 0
_ATTACHMENTS_CODE = 0
_GONIOMETER_RADIUS = 300
_FIXED_DIVSLIT = 1
_FIXED_SAMPLESLIT = 0
_SOLLER_SLITS = 2
_FIXED_DETSLIT = 0.1
_MONOCHROMATOR = 0
; Incident beam monochromator : None
_SOLLER_SLITS_2 = 2
_THIN_FILM = N
_BETA_FILTER = Y
_FIXED_ANTISLIT = 0.6
_ANALYZER_CODE = 0
; Received beam analyzer : None
_DATEMEASURED = "07-Nov-2013 18:30:19"
_WL_UNIT = A
_WL1 = 1.78897
_WL2 = 1.79285
_WL3 = 1.62079
_WLRATIO = 0.5
_ANODE = Co
_V4_INF_CREATOR = XRDWizard
_V4_INF_CREATOR_VERSION = V2.9.0.22
_V4_INF_WIZARD_VERSION = V2.9.0.22
_V4_INF_WIZARD_ADDINS = V2.9.0.22
_V4_INF_WIZARD_DOCTYPE = XRD
_V4_INF_OSUSER = Postech
_V4_INF_USER = Admin
_V4_INF_SITE = Korea

; Data for range 1
_DRIVE = COUPLED
_STEPTIME = 0.2
_STEPSIZE = 0.1
_STEPMODE = C
_START = 40
_THETA = 20
_2THETA = 40
_KHI = 0
_PHI = 0
_X = 25
_Y = 25
_Z = 0
_DETECTOR = 1
; Detector type : Scintillation counter
_HV = 687
_GAIN = 80
_LLD = 0.69
_ULD = 1.866
_DETECTORSLIT = unkn
_AUX1 = 0
_AUX2 = 0
_AUX3 = 0
_TIMESTARTED = 28
_TEMP_RATE = -1
_TEMP_DELAY = -1
_KV = 35
_MA = 40
_RANGE_WL = 1.78897
_3DPLANE = 0
_V4_ADDITIONALDETECTOR = 0
_V4_D8_DIBNUM = 1
_V4_DETECTORNAME = "Detector 1"
_V4_TTLDETECTOR = None
_V4_DETECTORTYPE = 1
_V4_DETECTORFLAGS = 524545
_V4_DETECTORHV = 687
_V4_DETECTORGAIN = 80
_V4_DETECTORLLD1 = 0.69
_V4_DETECTORWW1 = 1.176
_V4_DETECTORLLD2 = 0
_V4_DETECTORWW2 = 0
_V4_DETECTORPS = 0
_V4_DETECTORDT = 0
_V4_DETECTORPILEUPTIME = 0
_V4_COUNTERS_MASK = 1
_V4_DRIVES_MASK = 0
_V4_ENCODERS_MASK = 0
_2THETACOUNTS = 1
; 2THETA  Cnt1_D1
  40.0000        580
  40.1000        546
  40.2000        551
  40.3000        515
  40.4000        526
  40.5000        530
  40.6000        534
  40.7000        522
  40.8000        474
  40.9000        539
  41.0000        517
  41.1000        573
  41.2000        527
  41.3000        546
  41.4000        500
  41.5000        550
  41.6000        496
  41.7000        550
  41.8000        539
  41.9000        522
  42.0000        509
  42.1000        563
  42.2000        572
  42.3000        597
  42.4000        555
  42.5000        544
  42.6000        553
  42.7000        549
  42.8000        593
  42.9000        525
  43.0000        521
  43.1000        573
  43.2000        559
  43.3000        474
  43.4000        498
  43.5000        538
  43.6000        567
  43.7000        492
  43.8000        507
  43.9000        534
  44.0000        552
  44.1000        526
  44.2000        546
  44.3000        583
  44.4000        556
  44.5000        513
  44.6000        525
  44.7000        503
  44.8000        521
  44.9000        537
  45.0000        503
  45.1000        558
  45.2000        548
  45.3000        512
  45.4000        512
  45.5000        512
  45.6000        521
  45.7000        504
  45.8000        541
  45.9000        522
  46.0000        516
  46.1000        513
  46.2000        501
  46.3000        524
  46.4000        567
  46.5000        538
  46.6000        526
  46.7000        527
  46.8000        555
  46.9000        513
  47.0000        512
  47.1000        519
  47.2000        507
  47.3000        547
  47.4000        522
  47.5000        552
  47.6000        522
  47.7000        500
  47.8000        517
  47.9000        569
  48.0000        511
  48.1000        534
  48.2000        531
  48.3000        538
  48.4000        576
  48.5000        515
  48.6000        529
  48.7000        528
  48.8000        564
  48.9000        525
  49.0000        501
  49.1000        520
  49.2000        529
  49.3000        543
  49.4000        509
  49.5000        516
  49.6000        566
  49.7000        513
  49.8000        552
  49.9000        538
  50.0000        518
  50.1000        553
  50.2000        546
  50.3000        543
  50.4000        509
  50.5000        545
  50.6000        529
  50.7000        605
  50.8000        558
  50.9000        555
  51.0000        579
  51.1000        575
  51.2000        585
  51.3000        596
  51.4000        618
  51.5000        704
  51.6000        783
  51.7000       1112
  51.8000       1326
  51.9000       1516
  52.0000       1546
  52.1000       1607
  52.2000       1620
  52.3000       1581
  52.4000       1571
  52.5000       1356
  52.6000       1047
  52.7000        855
  52.8000        646
  52.9000        637
  53.0000        547
  53.1000        563
  53.2000        589
  53.3000        526
  53.4000        574
  53.5000        573
  53.6000        507
  53.7000        581
  53.8000        513
  53.9000        544
  54.0000        528
  54.1000        487
  54.2000        542
  54.3000        550
  54.4000        523
  54.5000        517
  54.6000        511
  54.7000        552
  54.8000        543
  54.9000        536
  55.0000        536
  55.1000        520
  55.2000        530
  55.3000        520
  55.4000        556
  55.5000        564
  55.6000        546
  55.7000        545
  55.8000        503
  55.9000        485
  56.0000        522
  56.1000        518
  56.2000        553
  56.3000        564
  56.4000        512
  56.5000        546
  56.6000        513
  56.7000        546
  56.8000        520
  56.9000        507
  57.0000        513
  57.1000        552
  57.2000        524
  57.3000        534
  57.4000        507
  57.5000        534
  57.6000        530
  57.7000        525
  57.8000        525
  57.9000        505
  58.0000        545
  58.1000        527
  58.2000        516
  58.3000        541
  58.4000        517
  58.5000        504
  58.6000        500
  58.7000        554
  58.8000        549
  58.9000        502
  59.0000        482
  59.1000        552
  59.2000        546
  59.3000        538
  59.4000        525
  59.5000        562
  59.6000        568
  59.7000        557
  59.8000        522
  59.9000        501
  60.0000        567
  60.1000        526
  60.2000        557
  60.3000        528
  60.4000        534
  60.5000        541
  60.6000        506
  60.7000        545
  60.8000        536
  60.9000        570
  61.0000        519
  61.1000        513
  61.2000        550
  61.3000        518
  61.4000        562
  61.5000        543
  61.6000        478
  61.7000        533
  61.8000        559
  61.9000        529
  62.0000        531
  62.1000        518
  62.2000        532
  62.3000        498
  62.4000        529
  62.5000        549
  62.6000        528
  62.7000        525
  62.8000        545
  62.9000        493
  63.0000        530
  63.1000        497
  63.2000        522
  63.3000        486
  63.4000        515
  63.5000        529
  63.6000        518
  63.7000        502
  63.8000        496
  63.9000        492
  64.0000        523
  64.1000        524
  64.2000        508
  64.3000        506
  64.4000        484
  64.5000        506
  64.6000        546
  64.7000        541
  64.8000        526
  64.9000        518
  65.0000        506
  65.1000        498
  65.2000        544
  65.3000        526
  65.4000        526
  65.5000        506
  65.6000        538
  65.7000        532
  65.8000        511
  65.9000        527
  66.0000        533
  66.1000        511
  66.2000        522
  66.3000        520
  66.4000        536
  66.5000        522
  66.6000        528
  66.7000        519
  66.8000        555
  66.9000        495
  67.0000        494
  67.1000        514
  67.2000        515
  67.3000        534
  67.4000        500
  67.5000        513
  67.6000        525
  67.7000        519
  67.8000        523
  67.9000        511
  68.0000        542
  68.1000        510
  68.2000        537
  68.3000        545
  68.4000        527
  68.5000        512
  68.6000        514
  68.7000        543
  68.8000        518
  68.9000        522
  69.0000        537
  69.1000        507
  69.2000        479
  69.3000        507
  69.4000        530
  69.5000        524
  69.6000        522
  69.7000        506
  69.8000        546
  69.9000        542
  70.0000        524
  70.1000        534
  70.2000        535
  70.3000        539
  70.4000        508
  70.5000        475
  70.6000        517
  70.7000        516
  70.8000        525
  70.9000        482
  71.0000        519
  71.1000        499
  71.2000        537
  71.3000        542
  71.4000        505
  71.5000        561
  71.6000        559
  71.7000        514
  71.8000        510
  71.9000        545
  72.0000        533
  72.1000        465
  72.2000        585
  72.3000        528
  72.4000        499
  72.5000        535
  72.6000        483
  72.7000        515
  72.8000        513
  72.9000        524
  73.0000        513
  73.1000        528
  73.2000        527
  73.3000        538
  73.4000        518
  73.5000        512
  73.6000        534
  73.7000        507
  73.8000        536
  73.9000        565
  74.0000        498
  74.1000        482
  74.2000        522
  74.3000        524
  74.4000        526
  74.5000        529
  74.6000        497
  74.7000        470
  74.8000        510
  74.9000        516
  75.0000        541
  75.1000        517
  75.2000        518
  75.3000        516
  75.4000        514
  75.5000        484
  75.6000        525
  75.7000        506
  75.8000        513
  75.9000        559
  76.0000        545
  76.1000        585
  76.2000        610
  76.3000        705
  76.4000        776
  76.5000        861
  76.6000        978
  76.7000       1031
  76.8000       1072
  76.9000       1024
  77.0000       1049
  77.1000       1054
  77.2000        977
  77.3000        903
  77.4000        811
  77.5000        684
  77.6000        624
  77.7000        543
  77.8000        554
  77.9000        566
  78.0000        557
  78.1000        541
  78.2000        515
  78.3000        551
  78.4000        531
  78.5000        520
  78.6000        525
  78.7000        541
  78.8000        502
  78.9000        540
  79.0000        482
  79.1000        555
  79.2000        514
  79.3000        550
  79.4000        523
  79.5000        503
  79.6000        523
  79.7000        486
  79.8000        553
  79.9000        523
  80.0000        523
  80.1000        501
  80.2000        533
  80.3000        512
  80.4000        545
  80.5000        535
  80.6000        489
  80.7000        473
  80.8000        525
  80.9000        544
  81.0000        519
  81.1000        512
  81.2000        523
  81.3000        552
  81.4000        465
  81.5000        565
  81.6000        541
  81.7000        535
  81.8000        535
  81.9000        497
  82.0000        514
  82.1000        530
  82.2000        529
  82.3000        563
  82.4000        531
  82.5000        504
  82.6000        534
  82.7000        499
  82.8000        521
  82.9000        582
  83.0000        507
  83.1000        496
  83.2000        485
  83.3000        515
  83.4000        456
  83.5000        492
  83.6000        527
  83.7000        508
  83.8000        515
  83.9000        521
  84.0000        513
  84.1000        522
  84.2000        539
  84.3000        485
  84.4000        496
  84.5000        506
  84.6000        501
  84.7000        556
  84.8000        539
  84.9000        526
  85.0000        523
  85.1000        511
  85.2000        494
  85.3000        513
  85.4000        486
  85.5000        441
  85.6000        491
  85.7000        532
  85.8000        501
  85.9000        543
  86.0000        514
  86.1000        535
  86.2000        492
  86.3000        552
  86.4000        518
  86.5000        486
  86.6000        517
  86.7000        538
  86.8000        519
  86.9000        548
  87.0000        484
  87.1000        511
  87.2000        532
  87.3000        511
  87.4000        502
  87.5000        539
  87.6000        551
  87.7000        517
  87.8000        496
  87.9000        507
  88.0000        564
  88.1000        557
  88.2000        522
  88.3000        536
  88.4000        517
  88.5000        520
  88.6000        498
  88.7000        534
  88.8000        506
  88.9000        537
  89.0000        538
  89.1000        593
  89.2000        539
  89.3000        550
  89.4000        593
  89.5000        591
  89.6000        528
  89.7000        565
  89.8000        533
  89.9000        568
  90.0000        521
  90.1000        561
  90.2000        544
  90.3000        528
  90.4000        537
  90.5000        538
  90.6000        508
  90.7000        539
  90.8000        542
  90.9000        517
  91.0000        512
  91.1000        530
  91.2000        521
  91.3000        505
  91.4000        534
  91.5000        522
  91.6000        541
  91.7000        532
  91.8000        528
  91.9000        507
  92.0000        524
  92.1000        491
  92.2000        552
  92.3000        512
  92.4000        513
  92.5000        494
  92.6000        545
  92.7000        543
  92.8000        535
  92.9000        513
  93.0000        526
  93.1000        492
  93.2000        471
  93.3000        488
  93.4000        504
  93.5000        518
  93.6000        551
  93.7000        501
  93.8000        503
  93.9000        545
  94.0000        510
  94.1000        515
  94.2000        551
  94.3000        519
  94.4000        492
  94.5000        518
  94.6000        503
  94.7000        545
  94.8000        536
  94.9000        536
  95.0000        520
  95.1000        555
  95.2000        508
  95.3000        497
  95.4000        523
  95.5000        530
  95.6000        523
  95.7000        500
  95.8000        522
  95.9000        505
  96.0000        494
  96.1000        539
  96.2000        542
  96.3000        501
  96.4000        478
  96.5000        532
  96.6000        517
  96.7000        507
  96.8000        527
  96.9000        525
  97.0000        515
  97.1000        520
  97.2000        530
  97.3000        574
  97.4000        511
  97.5000        529
  97.6000        516
  97.7000        544
  97.8000        577
  97.9000        533
  98.0000        560
  98.1000        578
  98.2000        577
  98.3000        638
  98.4000        599
  98.5000        671
  98.6000        728
  98.7000        821
  98.8000        942
  98.9000       1134
  99.0000       1277
  99.1000       1338
  99.2000       1441
  99.3000       1512
  99.4000       1476
  99.5000       1461
  99.6000       1355
  99.7000       1170
  99.8000       1010
  99.9000        930
 100.0000        770
 100.1000        657
 100.2000        616
 100.3000        600
 100.4000        568
 100.5000        553
 100.6000        563
 100.7000        532
 100.8000        549
 100.9000        580
 101.0000        567
 101.1000        542
 101.2000        571
 101.3000        553
 101.4000        485
 101.5000        482
 101.6000        537
 101.7000        513
 101.8000        499
 101.9000        529
 102.0000        552
 102.1000        543
 102.2000        528
 102.3000        505
 102.4000        477
 102.5000        500
 102.6000        533
 102.7000        481
 102.8000        514
 102.9000        502
 103.0000        517
 103.1000        514
 103.2000        532
 103.3000        509
 103.4000        515
 103.5000        487
 103.6000        500
 103.7000        527
 103.8000        509
 103.9000        508
 104.0000        528
 104.1000        532
 104.2000        542
 104.3000        530
 104.4000        522
 104.5000        543
 104.6000        489
 104.7000        504
 104.8000        534
 104.9000        541
 105.0000        478
 105.1000        528
 105.2000        509
 105.3000        540
 105.4000        519
 105.5000        489
 105.6000        519
 105.7000        518
 105.8000        513
 105.9000        544
 106.0000        536
 106.1000        504
 106.2000        532
 106.3000        508
 106.4000        485
 106.5000        478
 106.6000        513
 106.7000        526
 106.8000        480
 106.9000        514
 107.0000        527
 107.1000        535
 107.2000        495
 107.3000        500
 107.4000        511
 107.5000        513
 107.6000        520
 107.7000        530
 107.8000        576
 107.9000        504
 108.0000        536
 108.1000        512
 108.2000        490
 108.3000        545
 108.4000        529
 108.5000        519
 108.6000        572
 108.7000        502
 108.8000        526
 108.9000        542
 109.0000        499
 109.1000        513
 109.2000        527
 109.3000        520
 109.4000        551
 109.5000        515
 109.6000        506
 109.7000        515
 109.8000        513
 109.9000        505
 110.0000        520
 110.1000        526
 110.2000        574
 110.3000        517
 110.4000        486
 110.5000        553
 110.6000        523
 110.7000        553
 110.8000        542
 110.9000        516
 111.0000        541
 111.1000        573
 111.2000        539
 111.3000        546
 111.4000        513
 111.5000        497
 111.6000        538
 111.7000        544
 111.8000        545
 111.9000        569
 112.0000        518
 112.1000        554
 112.2000        495
 112.3000        524
 112.4000        525
 112.5000        539
 112.6000        506
 112.7000        486
 112.8000        516
 112.9000        525
 113.0000        507
 113.1000        526
 113.2000        506
 113.3000        521
 113.4000        474
 113.5000        549
 113.6000        513
 113.7000        485
 113.8000        522
 113.9000        521
 114.0000        519
 114.1000        477
 114.2000        493
 114.3000        540
 114.4000        502
 114.5000        507
 114.6000        503
 114.7000        559
 114.8000        516
 114.9000        520
 115.0000        524
 115.1000        500
 115.2000        533
 115.3000        544
 115.4000        510
 115.5000        527
 115.6000        484
 115.7000        518
 115.8000        506
 115.9000        545
 116.0000        512
 116.1000        470
 116.2000        489
 116.3000        518
 116.4000        538
 116.5000        510
 116.6000        511
 116.7000        540
 116.8000        525
 116.9000        525
 117.0000        529
 117.1000        520
 117.2000        451
 117.3000        512
 117.4000        531
 117.5000        496
 117.6000        523
 117.7000        532
 117.8000        502
 117.9000        465
 118.0000        532
 118.1000        503
 118.2000        536
 118.3000        540
 118.4000        511
 118.5000        503
 118.6000        513
 118.7000        505
 118.8000        525
 118.9000        544
 119.0000        525
 119.1000        524
 119.2000        480
 119.3000        521
 119.4000        518
 119.5000        488
 119.6000        516
 119.7000        507
 119.8000        516
 119.9000        535
 120.0000        550
 120.1000        507
 120.2000        526
 120.3000        541
 120.4000        470
 120.5000        508
 120.6000        526
 120.7000        516
 120.8000        516
 120.9000        541
 121.0000        543
 121.1000        514
 121.2000        552
 121.3000        518
 121.4000        508
 121.5000        544
 121.6000        498
 121.7000        527
 121.8000        520
 121.9000        502
 122.0000        515
 122.1000        525
 122.2000        518
 122.3000        517
 122.4000        535
 122.5000        499
 122.6000        535
 122.7000        513
 122.8000        550
 122.9000        554
 123.0000        600
 123.1000        569
 123.2000        623
 123.3000        581
 123.4000        643
 123.5000        623
 123.6000        607
 123.7000        546
 123.8000        549
 123.9000        600
 124.0000        592
 124.1000        587
 124.2000        533
 124.3000        539
 124.4000        477
 124.5000        546
 124.6000        562
 124.7000        480
 124.8000        485
 124.9000        527
 125.0000        499
 125.1000        508
 125.2000        533
 125.3000        489
 125.4000        508
 125.5000        535
 125.6000        538
 125.7000        522
 125.8000        512
 125.9000        544
 126.0000        536
 126.1000        532
 126.2000        540
 126.3000        483
 126.4000        484
 126.5000        546
 126.6000        554
 126.7000        529
 126.8000        548
 126.9000        509
 127.0000        471
 127.1000        515
 127.2000        510
 127.3000        525
 127.4000        492
 127.5000        503
 127.6000        507
 127.7000        473
 127.8000        513
 127.9000        530
 128.0000        527
 128.1000        539
 128.2000        517
 128.3000        501
 128.4000        503
 128.5000        547
 128.6000        530
 128.7000        527
 128.8000        502
 128.9000        494
 129.0000        492
 129.1000        512
 129.2000        484
 129.3000        512
 129.4000        485
 129.5000        551
 129.6000        505
 129.7000        492
 129.8000        528
 129.9000        524
 130.0000        494

; Data for range 2
_DRIVE = COUPLED
_STEPTIME = 0.2
_STEPSIZE = 0.1
_STEPMODE = C
_START = 40
_THETA = 20
_2THETA = 40
_KHI = 10.5
_PHI = 60
_X = 25
_Y = 25
_Z = 0
_DETECTOR = 1
; Detector type : Scintillation counter
_HV = 687
_GAIN = 80
_LLD = 0.69
_ULD = 1.866
_DETECTORSLIT = unkn
_AUX1 = 0
_AUX2 = 0
_AUX3 = 0
_TIMESTARTED = 225
_TEMP_RATE = -1
_TEMP_DELAY = -1
_KV = 35
_MA = 40
_RANGE_WL = 1.78897
_3DPLANE = 0
_V4_ADDITIONALDETECTOR = 0
_V4_D8_DIBNUM = 1
_V4_DETECTORNAME = "Detector 1"
_V4_TTLDETECTOR = None
_V4_DETECTORTYPE = 1
_V4_DETECTORFLAGS = 524545
_V4_DETECTORHV = 687
_V4_DETECTORGAIN = 80
_V4_DETECTORLLD1 = 0.69
_V4_DETECTORWW1 = 1.176
_V4_DETECTORLLD2 = 0
_V4_DETECTORWW2 = 0
_V4_DETECTORPS = 0
_V4_DETECTORDT = 0
_V4_DETECTORPILEUPTIME = 0
_V4_COUNTERS_MASK = 1
_V4_DRIVES_MASK = 0
_V4_ENCODERS_MASK = 0
_2THETACOUNTS = 1
; 2THETA  Cnt1_D1
  40.0000        530
  40.1000        537
  40.2000        529
  40.3000        517
  40.4000        553
  40.5000        534
  40.6000        535
  40.7000        522
  40.8000        493
  40.9000        533
  41.0000        530
  41.1000        550
  41.2000        551
  41.3000        517
  41.4000        536
  41.5000        538
  41.6000        562
  41.7000        495
  41.8000        505
  41.9000        505
  42.0000        517
  42.1000        533
  42.2000        528
  42.3000        547
  42.4000        492
  42.5000        514
  42.6000        533
  42.7000        496
  42.8000        529
  42.9000        506
  43.0000        528
  43.1000        543
  43.2000        506
  43.3000        495
  43.4000        581
  43.5000        525
  43.6000        485
  43.7000        527
  43.8000        514
  43.9000        513
  44.0000        559
  44.1000        552
  44.2000        532
  44.3000        559
  44.4000        566
  44.5000        508
  44.6000        536
  44.7000        573
  44.8000        497
  44.9000        511
  45.0000        522
  45.1000        484
  45.2000        535
  45.3000        475
  45.4000        547
  45.5000        559
  45.6000        561
  45.7000        540
  45.8000        525
  45.9000        524
  46.0000        511
  46.1000        518
  46.2000        521
  46.3000        550
  46.4000        528
  46.5000        555
  46.6000        532
  46.7000        496
  46.8000        526
  46.9000        487
  47.0000        536
  47.1000        526
  47.2000        507
  47.3000        507
  47.4000        540
  47.5000        557
  47.6000        540
  47.7000        502
  47.8000        482
  47.9000        508
  48.0000        532
  48.1000        527
  48.2000        570
  48.3000        532
  48.4000        513
  48.5000        520
  48.6000        526
  48.7000        537
  48.8000        547
  48.9000        519
  49.0000        540
  49.1000        569
  49.2000        499
  49.3000        517
  49.4000        521
  49.5000        522
  49.6000        512
  49.7000        523
  49.8000        521
  49.9000        512
  50.0000        526
  50.1000        552
  50.2000        519
  50.3000        557
  50.4000        472
  50.5000        548
  50.6000        589
  50.7000        584
  50.8000        598
  50.9000        561
  51.0000        553
  51.1000        608
  51.2000        604
  51.3000        627
  51.4000        641
  51.5000        694
  51.6000        822
  51.7000       1011
  51.8000       1142
  51.9000       1335
  52.0000       1443
  52.1000       1338
  52.2000       1439
  52.3000       1335
  52.4000       1310
  52.5000       1141
  52.6000        985
  52.7000        800
  52.8000        628
  52.9000        556
  53.0000        553
  53.1000        517
  53.2000        547
  53.3000        493
  53.4000        564
  53.5000        584
  53.6000        517
  53.7000        534
  53.8000        551
  53.9000        521
  54.0000        539
  54.1000        535
  54.2000        509
  54.3000        508
  54.4000        541
  54.5000        543
  54.6000        526
  54.7000        508
  54.8000        537
  54.9000        540
  55.0000        508
  55.1000        500
  55.2000        511
  55.3000        542
  55.4000        532
  55.5000        526
  55.6000        535
  55.7000        557
  55.8000        512
  55.9000        497
  56.0000        520
  56.1000        570
  56.2000        536
  56.3000        523
  56.4000        571
  56.5000        548
  56.6000        536
  56.7000        560
  56.8000        527
  56.9000        585
  57.0000        530
  57.1000        507
  57.2000        538
  57.3000        523
  57.4000        538
  57.5000        531
  57.6000        528
  57.7000        505
  57.8000        542
  57.9000        569
  58.0000        503
  58.1000        520
  58.2000        514
  58.3000        581
  58.4000        511
  58.5000        523
  58.6000        541
  58.7000        489
  58.8000        539
  58.9000        557
  59.0000        496
  59.1000        522
  59.2000        517
  59.3000        521
  59.4000        485
  59.5000        548
  59.6000        567
  59.7000        507
  59.8000        557
  59.9000        538
  60.0000        563
  60.1000        506
  60.2000        526
  60.3000        520
  60.4000        499
  60.5000        505
  60.6000        537
  60.7000        514
  60.8000        517
  60.9000        530
  61.0000        496
  61.1000        517
  61.2000        539
  61.3000        516
  61.4000        535
  61.5000        536
  61.6000        529
  61.7000        496
  61.8000        513
  61.9000        539
  62.0000        507
  62.1000        504
  62.2000        518
  62.3000        507
  62.4000        524
  62.5000        540
  62.6000        547
  62.7000        575
  62.8000        498
  62.9000        494
  63.0000        523
  63.1000        533
  63.2000        548
  63.3000        540
  63.4000        499
  63.5000        506
  63.6000        539
  63.7000        495
  63.8000        533
  63.9000        588
  64.0000        513
  64.1000        539
  64.2000        513
  64.3000        518
  64.4000        510
  64.5000        525
  64.6000        507
  64.7000        529
  64.8000        495
  64.9000        542
  65.0000        515
  65.1000        539
  65.2000        560
  65.3000        538
  65.4000        503
  65.5000        520
  65.6000        492
  65.7000        480
  65.8000        492
  65.9000        500
  66.0000        505
  66.1000        532
  66.2000        508
  66.3000        517
  66.4000        513
  66.5000        521
  66.6000        484
  66.7000        513
  66.8000        543
  66.9000        468
  67.0000        469
  67.1000        496
  67.2000        468
  67.3000        521
  67.4000        482
  67.5000        497
  67.6000        530
  67.7000        531
  67.8000        508
  67.9000        500
  68.0000        491
  68.1000        564
  68.2000        563
  68.3000        526
  68.4000        507
  68.5000        531
  68.6000        543
  68.7000        527
  68.8000        521
  68.9000        514
  69.0000        478
  69.1000        497
  69.2000        558
  69.3000        523
  69.4000        543
  69.5000        508
  69.6000        486
  69.7000        533
  69.8000        463
  69.9000        515
  70.0000        527
  70.1000        517
  70.2000        501
  70.3000        447
  70.4000        517
  70.5000        480
  70.6000        544
  70.7000        480
  70.8000        539
  70.9000        531
  71.0000        506
  71.1000        528
  71.2000        459
  71.3000        503
  71.4000        499
  71.5000        510
  71.6000        516
  71.7000        530
  71.8000        539
  71.9000        532
  72.0000        531
  72.1000        523
  72.2000        510
  72.3000        565
  72.4000        534
  72.5000        498
  72.6000        520
  72.7000        504
  72.8000        520
  72.9000        548
  73.0000        502
  73.1000        499
  73.2000        488
  73.3000        467
  73.4000        485
  73.5000        502
  73.6000        514
  73.7000        533
  73.8000        541
  73.9000        527
  74.0000        500
  74.1000        534
  74.2000        460
  74.3000        489
  74.4000        481
  74.5000        494
  74.6000        515
  74.7000        544
  74.8000        539
  74.9000        541
  75.0000        537
  75.1000        519
  75.2000        526
  75.3000        496
  75.4000        564
  75.5000        538
  75.6000        531
  75.7000        501
  75.8000        523
  75.9000        552
  76.0000        557
  76.1000        585
  76.2000        560
  76.3000        599
  76.4000        661
  76.5000        662
  76.6000        685
  76.7000        795
  76.8000        824
  76.9000        808
  77.0000        785
  77.1000        749
  77.2000        799
  77.3000        726
  77.4000        643
  77.5000        607
  77.6000        595
  77.7000        557
  77.8000        553
  77.9000        540
  78.0000        569
  78.1000        524
  78.2000        554
  78.3000        548
  78.4000        495
  78.5000        507
  78.6000        482
  78.7000        499
  78.8000        548
  78.9000        466
  79.0000        545
  79.1000        556
  79.2000        489
  79.3000        504
  79.4000        543
  79.5000        494
  79.6000        515
  79.7000        523
  79.8000        493
  79.9000        530
  80.0000        528
  80.1000        503
  80.2000        533
  80.3000        535
  80.4000        525
  80.5000        495
  80.6000        500
  80.7000        487
  80.8000        529
  80.9000        516
  81.0000        489
  81.1000        511
  81.2000        535
  81.3000        497
  81.4000        543
  81.5000        515
  81.6000        534
  81.7000        510
  81.8000        505
  81.9000        527
  82.0000        500
  82.1000        482
  82.2000        531
  82.3000        515
  82.4000        517
  82.5000        556
  82.6000        514
  82.7000        505
  82.8000        485
  82.9000        504
  83.0000        497
  83.1000        517
  83.2000        508
  83.3000        518
  83.4000        524
  83.5000        541
  83.6000        518
  83.7000        528
  83.8000        479
  83.9000        502
  84.0000        514
  84.1000        492
  84.2000        519
  84.3000        524
  84.4000        470
  84.5000        498
  84.6000        498
  84.7000        468
  84.8000        489
  84.9000        530
  85.0000        570
  85.1000        484
  85.2000        488
  85.3000        466
  85.4000        509
  85.5000        473
  85.6000        489
  85.7000        523
  85.8000        504
  85.9000        520
  86.0000        534
  86.1000        543
  86.2000        528
  86.3000        526
  86.4000        526
  86.5000        489
  86.6000        513
  86.7000        503
  86.8000        537
  86.9000        505
  87.0000        490
  87.1000        499
  87.2000        502
  87.3000        494
  87.4000        498
  87.5000        550
  87.6000        495
  87.7000        511
  87.8000        482
  87.9000        497
  88.0000        528
  88.1000        509
  88.2000        533
  88.3000        515
  88.4000        556
  88.5000        518
  88.6000        560
  88.7000        538
  88.8000        499
  88.9000        521
  89.0000        518
  89.1000        567
  89.2000        559
  89.3000        563
  89.4000        541
  89.5000        548
  89.6000        523
  89.7000        548
  89.8000        526
  89.9000        574
  90.0000        512
  90.1000        518
  90.2000        492
  90.3000        513
  90.4000        530
  90.5000        515
  90.6000        516
  90.7000        512
  90.8000        505
  90.9000        550
  91.0000        557
  91.1000        490
  91.2000        484
  91.3000        543
  91.4000        494
  91.5000        523
  91.6000        519
  91.7000        483
  91.8000        517
  91.9000        487
  92.0000        509
  92.1000        550
  92.2000        497
  92.3000        487
  92.4000        511
  92.5000        507
  92.6000        512
  92.7000        515
  92.8000        493
  92.9000        507
  93.0000        505
  93.1000        484
  93.2000        499
  93.3000        504
  93.4000        536
  93.5000        528
  93.6000        497
  93.7000        538
  93.8000        510
  93.9000        492
  94.0000        489
  94.1000        513
  94.2000        484
  94.3000        490
  94.4000        491
  94.5000        565
  94.6000        529
  94.7000        488
  94.8000        518
  94.9000        507
  95.0000        560
  95.1000        550
  95.2000        505
  95.3000        511
  95.4000        484
  95.5000        509
  95.6000        501
  95.7000        514
  95.8000        505
  95.9000        516
  96.0000        524
  96.1000        483
  96.2000        533
  96.3000        526
  96.4000        539
  96.5000        528
  96.6000        542
  96.7000        518
  96.8000        516
  96.9000        498
  97.0000        502
  97.1000        547
  97.2000        534
  97.3000        505
  97.4000        513
  97.5000        514
  97.6000        528
  97.7000        541
  97.8000        536
  97.9000        623
  98.0000        624
  98.1000        557
  98.2000        528
  98.3000        542
  98.4000        597
  98.5000        613
  98.6000        622
  98.7000        759
  98.8000        783
  98.9000        931
  99.0000        989
  99.1000       1081
  99.2000       1080
  99.3000       1175
  99.4000       1087
  99.5000       1095
  99.6000       1014
  99.7000        900
  99.8000        906
  99.9000        749
 100.0000        679
 100.1000        684
 100.2000        591
 100.3000        560
 100.4000        565
 100.5000        511
 100.6000        482
 100.7000        557
 100.8000        540
 100.9000        528
 101.0000        552
 101.1000        502
 101.2000        547
 101.3000        507
 101.4000        529
 101.5000        514
 101.6000        546
 101.7000        506
 101.8000        524
 101.9000        507
 102.0000        550
 102.1000        523
 102.2000        527
 102.3000        533
 102.4000        505
 102.5000        532
 102.6000        525
 102.7000        492
 102.8000        490
 102.9000        536
 103.0000        479
 103.1000        477
 103.2000        550
 103.3000        509
 103.4000        516
 103.5000        460
 103.6000        501
 103.7000        497
 103.8000        530
 103.9000        533
 104.0000        511
 104.1000        543
 104.2000        528
 104.3000        504
 104.4000        507
 104.5000        479
 104.6000        545
 104.7000        527
 104.8000        513
 104.9000        512
 105.0000        491
 105.1000        557
 105.2000        531
 105.3000        525
 105.4000        496
 105.5000        552
 105.6000        515
 105.7000        537
 105.8000        527
 105.9000        456
 106.0000        548
 106.1000        507
 106.2000        537
 106.3000        510
 106.4000        517
 106.5000        524
 106.6000        521
 106.7000        504
 106.8000        492
 106.9000        526
 107.0000        521
 107.1000        527
 107.2000        520
 107.3000        494
 107.4000        526
 107.5000        520
 107.6000        508
 107.7000        507
 107.8000        517
 107.9000        555
 108.0000        469
 108.1000        530
 108.2000        520
 108.3000        478
 108.4000        521
 108.5000        506
 108.6000        549
 108.7000        506
 108.8000        492
 108.9000        561
 109.0000        525
 109.1000        480
 109.2000        539
 109.3000        547
 109.4000        531
 109.5000        552
 109.6000        464
 109.7000        513
 109.8000        517
 109.9000        516
 110.0000        480
 110.1000        510
 110.2000        506
 110.3000        497
 110.4000        470
 110.5000        523
 110.6000        503
 110.7000        519
 110.8000        549
 110.9000        527
 111.0000        511
 111.1000        537
 111.2000        504
 111.3000        497
 111.4000        541
 111.5000        544
 111.6000        570
 111.7000        526
 111.8000        511
 111.9000        515
 112.0000        501
 112.1000        535
 112.2000        536
 112.3000        582
 112.4000        499
 112.5000        563
 112.6000        501
 112.7000        489
 112.8000        537
 112.9000        514
 113.0000        478
 113.1000        503
 113.2000        499
 113.3000        500
 113.4000        496
 113.5000        519
 113.6000        505
 113.7000        538
 113.8000        543
 113.9000        504
 114.0000        518
 114.1000        539
 114.2000        506
 114.3000        507
 114.4000        508
 114.5000        506
 114.6000        492
 114.7000        540
 114.8000        567
 114.9000        531
 115.0000        530
 115.1000        502
 115.2000        524
 115.3000        526
 115.4000        536
 115.5000        489
 115.6000        524
 115.7000        503
 115.8000        492
 115.9000        479
 116.0000        502
 116.1000        551
 116.2000        537
 116.3000        538
 116.4000        504
 116.5000        492
 116.6000        485
 116.7000        531
 116.8000        548
 116.9000        501
 117.0000        595
 117.1000        480
 117.2000        540
 117.3000        519
 117.4000        472
 117.5000        500
 117.6000        525
 117.7000        483
 117.8000        513
 117.9000        558
 118.0000        487
 118.1000        523
 118.2000        505
 118.3000        494
 118.4000        517
 118.5000        491
 118.6000        505
 118.7000        525
 118.8000        508
 118.9000        503
 119.0000        503
 119.1000        500
 119.2000        523
 119.3000        521
 119.4000        535
 119.5000        543
 119.6000        514
 119.7000        508
 119.8000        517
 119.9000        526
 120.0000        537
 120.1000        513
 120.2000        494
 120.3000        536
 120.4000        545
 120.5000        499
 120.6000        533
 120.7000        503
 120.8000        515
 120.9000        506
 121.0000        516
 121.1000        533
 121.2000        499
 121.3000        501
 121.4000        558
 121.5000        491
 121.6000        486
 121.7000        551
 121.8000        505
 121.9000        552
 122.0000        484
 122.1000        504
 122.2000        532
 122.3000        526
 122.4000        553
 122.5000        529
 122.6000        532
 122.7000        566
 122.8000        540
 122.9000        576
 123.0000        577
 123.1000        566
 123.2000        577
 123.3000        547
 123.4000        584
 123.5000        587
 123.6000        564
 123.7000        579
 123.8000        535
 123.9000        548
 124.0000        576
 124.1000        526
 124.2000        523
 124.3000        512
 124.4000        564
 124.5000        491
 124.6000        549
 124.7000        521
 124.8000        494
 124.9000        507
 125.0000        520
 125.1000        504
 125.2000        547
 125.3000        527
 125.4000        530
 125.5000        536
 125.6000        545
 125.7000        565
 125.8000        543
 125.9000        507
 126.0000        535
 126.1000        492
 126.2000        447
 126.3000        493
 126.4000        552
 126.5000        493
 126.6000        490
 126.7000        517
 126.8000        534
 126.9000        550
 127.0000        495
 127.1000        531
 127.2000        500
 127.3000        550
 127.4000        469
 127.5000        506
 127.6000        494
[...]
 129.1000        387
 129.2000        365
 129.3000        368
 129.4000        370
 129.5000        354
 129.6000        339
 129.7000        378
 129.8000        352
 129.9000        364
 130.0000        369

; Data for range 53
_DRIVE = COUPLED
_STEPTIME = 0.2
_STEPSIZE = 0.1
_STEPMODE = C
_START = 40
_THETA = 20
_2THETA = 40
_KHI = 80
_PHI = 0
_X = 25
_Y = 25
_Z = 0
_DETECTOR = 1
; Detector type : Scintillation counter
_HV = 687
_GAIN = 80
_LLD = 0.69
_ULD = 1.866
_DETECTORSLIT = unkn
_AUX1 = 0
_AUX2 = 0
_AUX3 = 0
_TIMESTARTED = 1.03e+004
_TEMP_RATE = -1
_TEMP_DELAY = -1
_KV = 35
_MA = 40
_RANGE_WL = 1.78897
_3DPLANE = 0
_V4_ADDITIONALDETECTOR = 0
_V4_D8_DIBNUM = 1
_V4_DETECTORNAME = "Detector 1"
_V4_TTLDETECTOR = None
_V4_DETECTORTYPE = 1
_V4_DETECTORFLAGS = 524545
_V4_DETECTORHV = 687
_V4_DETECTORGAIN = 80
_V4_DETECTORLLD1 = 0.69
_V4_DETECTORWW1 = 1.176
_V4_DETECTORLLD2 = 0
_V4_DETECTORWW2 = 0
_V4_DETECTORPS = 0
_V4_DETECTORDT = 0
_V4_DETECTORPILEUPTIME = 0
_V4_COUNTERS_MASK = 1
_V4_DRIVES_MASK = 0
_V4_ENCODERS_MASK = 0
_2THETACOUNTS = 1
; 2THETA  Cnt1_D1
  40.0000        176
  40.1000        188
  40.2000        163
  40.3000        176
  40.4000        181
  40.5000        199
  40.6000        158
  40.7000        194
  40.8000        174
  40.9000        188
  41.0000        179
  41.1000        166
  41.2000        179
  41.3000        181
  41.4000        191
  41.5000        172
  41.6000        170
  41.7000        186
  41.8000        167
  41.9000        169
  42.0000        212
  42.1000        151
  42.2000        159
  42.3000        172
  42.4000        223
  42.5000        194
  42.6000        242
  42.7000        228
  42.8000        307
  42.9000        258
  43.0000        259
  43.1000        272
  43.2000        287
  43.3000        276
  43.4000        277
  43.5000        273
  43.6000        240
  43.7000        228
  43.8000        232
  43.9000        224
  44.0000        188
  44.1000        197
  44.2000        208
  44.3000        191
  44.4000        180
  44.5000        193
  44.6000        189
  44.7000        224
  44.8000        199
  44.9000        194
  45.0000        186
  45.1000        160
  45.2000        179
  45.3000        200
  45.4000        206
  45.5000        201
  45.6000        186
  45.7000        179
  45.8000        201
  45.9000        211
  46.0000        177
  46.1000        188
  46.2000        202
  46.3000        210
  46.4000        203
  46.5000        179
  46.6000        207
  46.7000        212
  46.8000        187
  46.9000        190
  47.0000        189
  47.1000        207
  47.2000        210
  47.3000        226
  47.4000        198
  47.5000        193
  47.6000        212
  47.7000        210
  47.8000        227
  47.9000        224
  48.0000        201
  48.1000        222
  48.2000        212
  48.3000        202
  48.4000        202
  48.5000        228
  48.6000        224
  48.7000        190
  48.8000        221
  48.9000        191
  49.0000        192
  49.1000        214
  49.2000        186
  49.3000        197
  49.4000        221
  49.5000        201
  49.6000        215
  49.7000        221
  49.8000        227
  49.9000        255
  50.0000        264
  50.1000        273
  50.2000        269
  50.3000        289
  50.4000        296
  50.5000        287
  50.6000        277
  50.7000        296
  50.8000        314
  50.9000        313
  51.0000        326
  51.1000        364
  51.2000        443
  51.3000        475
  51.4000        566
  51.5000        636
  51.6000        757
  51.7000        802
  51.8000        946
  51.9000        997
  52.0000        986
  52.1000       1028
  52.2000       1052
  52.3000        933
  52.4000        849
  52.5000        821
  52.6000        752
  52.7000        764
  52.8000        625
  52.9000        571
  53.0000        552
  53.1000        442
  53.2000        378
  53.3000        295
  53.4000        293
  53.5000        283
  53.6000        253
  53.7000        239
  53.8000        235
  53.9000        238
  54.0000        240
  54.1000        244
  54.2000        198
  54.3000        223
  54.4000        237
  54.5000        232
  54.6000        211
  54.7000        240
  54.8000        215
  54.9000        269
  55.0000        238
  55.1000        220
  55.2000        239
  55.3000        206
  55.4000        252
  55.5000        254
  55.6000        216
  55.7000        236
  55.8000        226
  55.9000        216
  56.0000        230
  56.1000        225
  56.2000        271
  56.3000        227
  56.4000        239
  56.5000        252
  56.6000        207
  56.7000        239
  56.8000        208
  56.9000        228
  57.0000        225
  57.1000        230
  57.2000        235
  57.3000        271
  57.4000        233
  57.5000        231
  57.6000        246
  57.7000        240
  57.8000        256
  57.9000        243
  58.0000        239
  58.1000        232
  58.2000        234
  58.3000        244
  58.4000        262
  58.5000        260
  58.6000        216
  58.7000        251
  58.8000        271
  58.9000        284
  59.0000        250
  59.1000        236
  59.2000        226
  59.3000        262
  59.4000        230
  59.5000        232
  59.6000        236
  59.7000        252
  59.8000        240
  59.9000        234
  60.0000        251
  60.1000        254
  60.2000        233
  60.3000        253
  60.4000        225
  60.5000        258
  60.6000        212
  60.7000        235
  60.8000        227
  60.9000        221
  61.0000        222
  61.1000        247
  61.2000        237
  61.3000        240
  61.4000        274
  61.5000        246
  61.6000        266
  61.7000        254
  61.8000        262
  61.9000        241
  62.0000        228
  62.1000        257
  62.2000        250
  62.3000        249
  62.4000        243
  62.5000        231
  62.6000        272
  62.7000        265
  62.8000        244
  62.9000        223
  63.0000        284
  63.1000        256
  63.2000        258
  63.3000        250
  63.4000        263
  63.5000        264
  63.6000        235
  63.7000        240
  63.8000        215
  63.9000        267
  64.0000        271
  64.1000        255
  64.2000        228
  64.3000        249
  64.4000        256
  64.5000        259
  64.6000        247
  64.7000        267
  64.8000        276
  64.9000        250
  65.0000        263
  65.1000        264
  65.2000        243
  65.3000        290
  65.4000        263
  65.5000        259
  65.6000        276
  65.7000        248
  65.8000        260
  65.9000        269
  66.0000        292
  66.1000        285
  66.2000        264
  66.3000        273
  66.4000        247
  66.5000        274
  66.6000        232
  66.7000        285
  66.8000        291
  66.9000        255
  67.0000        273
  67.1000        261
  67.2000        284
  67.3000        287
  67.4000        285
  67.5000        281
  67.6000        294
  67.7000        310
  67.8000        290
  67.9000        298
  68.0000        270
  68.1000        247
  68.2000        305
  68.3000        289
  68.4000        274
  68.5000        283
  68.6000        253
  68.7000        285
  68.8000        283
  68.9000        296
  69.0000        273
  69.1000        300
  69.2000        282
  69.3000        268
  69.4000        266
  69.5000        254
  69.6000        253
  69.7000        257
  69.8000        257
  69.9000        294
  70.0000        297
  70.1000        294
  70.2000        292
  70.3000        285
  70.4000        282
  70.5000        280
  70.6000        293
  70.7000        316
  70.8000        278
  70.9000        272
  71.0000        329
  71.1000        301
  71.2000        271
  71.3000        299
  71.4000        294
  71.5000        334
  71.6000        256
  71.7000        316
  71.8000        297
  71.9000        298
  72.0000        279
  72.1000        315
  72.2000        308
  72.3000        329
  72.4000        264
  72.5000        295
  72.6000        281
  72.7000        279
  72.8000        289
  72.9000        318
  73.0000        308
  73.1000        278
  73.2000        297
  73.3000        309
  73.4000        300
  73.5000        262
  73.6000        311
  73.7000        289
  73.8000        295
  73.9000        305
  74.0000        300
  74.1000        272
  74.2000        345
  74.3000        304
  74.4000        293
  74.5000        287
  74.6000        305
  74.7000        307
  74.8000        341
  74.9000        326
  75.0000        316
  75.1000        300
  75.2000        299
  75.3000        345
  75.4000        281
  75.5000        351
  75.6000        334
  75.7000        316
  75.8000        328
  75.9000        373
  76.0000        319
  76.1000        340
  76.2000        348
  76.3000        355
  76.4000        332
  76.5000        386
  76.6000        332
  76.7000        363
  76.8000        393
  76.9000        350
  77.0000        366
  77.1000        339
  77.2000        399
  77.3000        337
  77.4000        346
  77.5000        351
  77.6000        344
  77.7000        318
  77.8000        351
  77.9000        357
  78.0000        338
  78.1000        334
  78.2000        355
  78.3000        328
  78.4000        318
  78.5000        337
  78.6000        298
  78.7000        303
  78.8000        336
  78.9000        323
  79.0000        283
  79.1000        336
  79.2000        330
  79.3000        303
  79.4000        295
  79.5000        311
  79.6000        304
  79.7000        334
  79.8000        308
  79.9000        337
  80.0000        333
  80.1000        335
  80.2000        344
  80.3000        319
  80.4000        339
  80.5000        332
  80.6000        300
  80.7000        336
  80.8000        302
  80.9000        329
  81.0000        338
  81.1000        328
  81.2000        322
  81.3000        352
  81.4000        313
  81.5000        313
  81.6000        352
  81.7000        333
  81.8000        295
  81.9000        307
  82.0000        332
  82.1000        322
  82.2000        332
  82.3000        291
  82.4000        329
  82.5000        314
  82.6000        355
  82.7000        347
  82.8000        309
  82.9000        352
  83.0000        357
  83.1000        324
  83.2000        315
  83.3000        357
  83.4000        345
  83.5000        320
  83.6000        330
  83.7000        309
  83.8000        327
  83.9000        326
  84.0000        335
  84.1000        339
  84.2000        290
  84.3000        314
  84.4000        331
  84.5000        336
  84.6000        335
  84.7000        308
  84.8000        323
  84.9000        327
  85.0000        326
  85.1000        316
  85.2000        340
  85.3000        324
  85.4000        298
  85.5000        348
  85.6000        333
  85.7000        316
  85.8000        320
  85.9000        352
  86.0000        311
  86.1000        351
  86.2000        339
  86.3000        348
  86.4000        357
  86.5000        322
  86.6000        351
  86.7000        344
  86.8000        331
  86.9000        331
  87.0000        335
  87.1000        346
  87.2000        356
  87.3000        336
  87.4000        348
  87.5000        362
  87.6000        331
  87.7000        343
  87.8000        303
  87.9000        326
  88.0000        313
  88.1000        359
  88.2000        317
  88.3000        363
  88.4000        358
  88.5000        361
  88.6000        347
  88.7000        359
  88.8000        363
  88.9000        352
  89.0000        350
  89.1000        379
  89.2000        350
  89.3000        329
  89.4000        354
  89.5000        378
  89.6000        337
  89.7000        362
  89.8000        363
  89.9000        335
  90.0000        370
  90.1000        360
  90.2000        339
  90.3000        354
  90.4000        374
  90.5000        349
  90.6000        379
  90.7000        349
  90.8000        366
  90.9000        347
  91.0000        339
  91.1000        357
  91.2000        347
  91.3000        350
  91.4000        323
  91.5000        339
  91.6000        392
  91.7000        335
  91.8000        392
  91.9000        390
  92.0000        370
  92.1000        323
  92.2000        378
  92.3000        316
  92.4000        337
  92.5000        376
  92.6000        357
  92.7000        324
  92.8000        333
  92.9000        356
  93.0000        325
  93.1000        350
  93.2000        343
  93.3000        355
  93.4000        368
  93.5000        353
  93.6000        371
  93.7000        344
  93.8000        341
  93.9000        341
  94.0000        342
  94.1000        333
  94.2000        362
  94.3000        379
  94.4000        331
  94.5000        336
  94.6000        371
  94.7000        323
  94.8000        347
  94.9000        388
  95.0000        361
  95.1000        379
  95.2000        359
  95.3000        345
  95.4000        369
  95.5000        383
  95.6000        337
  95.7000        349
  95.8000        408
  95.9000        332
  96.0000        337
  96.1000        357
  96.2000        339
  96.3000        350
  96.4000        335
  96.5000        395
  96.6000        376
  96.7000        348
  96.8000        371
  96.9000        396
  97.0000        372
  97.1000        364
  97.2000        367
  97.3000        376
  97.4000        397
  97.5000        364
  97.6000        366
  97.7000        413
  97.8000        387
  97.9000        433
  98.0000        430
  98.1000        444
  98.2000        449
  98.3000        438
  98.4000        489
  98.5000        483
  98.6000        518
  98.7000        554
  98.8000        564
  98.9000        543
  99.0000        571
  99.1000        606
  99.2000        587
  99.3000        564
  99.4000        566
  99.5000        617
  99.6000        560
  99.7000        576
  99.8000        530
  99.9000        540
 100.0000        520
 100.1000        451
 100.2000        450
 100.3000        447
 100.4000        443
 100.5000        407
 100.6000        379
 100.7000        400
 100.8000        382
 100.9000        358
 101.0000        348
 101.1000        346
 101.2000        379
 101.3000        363
 101.4000        393
 101.5000        350
 101.6000        396
 101.7000        374
 101.8000        393
 101.9000        356
 102.0000        385
 102.1000        349
 102.2000        358
 102.3000        363
 102.4000        377
 102.5000        364
 102.6000        347
 102.7000        380
 102.8000        388
 102.9000        362
 103.0000        344
 103.1000        327
 103.2000        386
 103.3000        386
 103.4000        380
 103.5000        365
 103.6000        367
 103.7000        361
 103.8000        402
 103.9000        377
 104.0000        412
 104.1000        392
 104.2000        406
 104.3000        389
 104.4000        356
 104.5000        364
 104.6000        357
 104.7000        375
 104.8000        371
 104.9000        376
 105.0000        382
 105.1000        389
 105.2000        383
 105.3000        371
 105.4000        378
 105.5000        322
 105.6000        363
 105.7000        410
 105.8000        365
 105.9000        353
 106.0000        368
 106.1000        413
 106.2000        359
 106.3000        361
 106.4000        363
 106.5000        366
 106.6000        366
 106.7000        390
 106.8000        402
 106.9000        370
 107.0000        377
 107.1000        390
 107.2000        349
 107.3000        325
 107.4000        405
 107.5000        362
 107.6000        373
 107.7000        409
 107.8000        370
 107.9000        356
 108.0000        384
 108.1000        354
 108.2000        369
 108.3000        349
 108.4000        349
 108.5000        383
 108.6000        352
 108.7000        372
 108.8000        388
 108.9000        363
 109.0000        420
 109.1000        348
 109.2000        401
 109.3000        372
 109.4000        401
 109.5000        376
 109.6000        404
 109.7000        383
 109.8000        371
 109.9000        406
 110.0000        435
 110.1000        378
 110.2000        383
 110.3000        383
 110.4000        366
 110.5000        383
 110.6000        416
 110.7000        346
 110.8000        395
 110.9000        397
 111.0000        390
 111.1000        400
 111.2000        395
 111.3000        393
 111.4000        361
 111.5000        421
 111.6000        390
 111.7000        390
 111.8000        389
 111.9000        382
 112.0000        396
 112.1000        354
 112.2000        412
 112.3000        376
 112.4000        387
 112.5000        393
 112.6000        403
 112.7000        392
 112.8000        374
 112.9000        385
 113.0000        378
 113.1000        345
 113.2000        403
 113.3000        411
 113.4000        362
 113.5000        397
 113.6000        406
 113.7000        347
 113.8000        372
 113.9000        347
 114.0000        363
 114.1000        351
 114.2000        338
 114.3000        425
 114.4000        379
 114.5000        366
 114.6000        332
 114.7000        407
 114.8000        343
 114.9000        350
 115.0000        388
 115.1000        400
 115.2000        360
 115.3000        381
 115.4000        384
 115.5000        368
 115.6000        391
 115.7000        365
 115.8000        378
 115.9000        405
 116.0000        339
 116.1000        355
 116.2000        380
 116.3000        356
 116.4000        368
 116.5000        376
 116.6000        386
 116.7000        368
 116.8000        367
 116.9000        381
 117.0000        343
 117.1000        383
 117.2000        383
 117.3000        416
 117.4000        371
 117.5000        373
 117.6000        384
 117.7000        394
 117.8000        344
 117.9000        373
 118.0000        371
 118.1000        364
 118.2000        382
 118.3000        362
 118.4000        360
 118.5000        387
 118.6000        370
 118.7000        371
 118.8000        384
 118.9000        366
 119.0000        412
 119.1000        388
 119.2000        385
 119.3000        388
 119.4000        378
 119.5000        365
 119.6000        389
 119.7000        361
 119.8000        366
 119.9000        373
 120.0000        391
 120.1000        399
 120.2000        373
 120.3000        381
 120.4000        390
 120.5000        372
 120.6000        419
 120.7000        422
 120.8000        373
 120.9000        382
 121.0000        365
 121.1000        400
 121.2000        396
 121.3000        400
 121.4000        382
 121.5000        387
 121.6000        411
 121.7000        373
 121.8000        376
 121.9000        459
 122.0000        403
 122.1000        419
 122.2000        420
 122.3000        459
 122.4000        465
 122.5000        479
 122.6000        486
 122.7000        473
 122.8000        491
 122.9000        528
 123.0000        541
 123.1000        529
 123.2000        521
 123.3000        500
 123.4000        481
 123.5000        520
 123.6000        463
 123.7000        502
 123.8000        482
 123.9000        474
 124.0000        473
 124.1000        413
 124.2000        375
 124.3000        382
 124.4000        383
 124.5000        409
 124.6000        412
 124.7000        401
 124.8000        376
 124.9000        372
 125.0000        398
 125.1000        363
 125.2000        427
 125.3000        374
 125.4000        379
 125.5000        377
 125.6000        363
 125.7000        377
 125.8000        390
 125.9000        382
 126.0000        407
 126.1000        373
 126.2000        388
 126.3000        366
 126.4000        434
 126.5000        377
 126.6000        402
 126.7000        429
 126.8000        392
 126.9000        391
 127.0000        401
 127.1000        394
 127.2000        359
 127.3000        362
 127.4000        369
 127.5000        366
 127.6000        385
 127.7000        374
 127.8000        386
 127.9000        388
 128.0000        390
 128.1000        392
 128.2000        387
 128.3000        370
 128.4000        388
 128.5000        343
 128.6000        361
 128.7000        364
 128.8000        390
 128.9000        424
 129.0000        363
 129.1000        401
 129.2000        371
 129.3000        381
 129.4000        355
 129.5000        348
 129.6000        381
 129.7000        359
 129.8000        369
 129.9000        340
 130.0000        413