File: exp_dat/old/exp_2013_11_11/27pct_-50G.uxd
; (content of file C:\DIFFDAT1\GIFT\MDL\Seawoong Lee\20131104_MV8\equal_area_maxkhi080_n8_2th40_130_x00y-25_-50g.raw)
_FILEVERSION = 3
_SAMPLE =
_+SAMPLE =
_SITE = Korea
_USER = Admin
_GONIOMETER_CODE = 20
; Goniometer : D8 theta/2theta, stage : Unknown
_SAMPLE_CHANGER_CODE = 0
_ATTACHMENTS_CODE = 0
_GONIOMETER_RADIUS = 300
_FIXED_DIVSLIT = 1
_FIXED_SAMPLESLIT = 0
_SOLLER_SLITS = 2
_FIXED_DETSLIT = 0.1
_MONOCHROMATOR = 0
; Incident beam monochromator : None
_SOLLER_SLITS_2 = 2
_THIN_FILM = N
_BETA_FILTER = Y
_FIXED_ANTISLIT = 0.6
_ANALYZER_CODE = 0
; Received beam analyzer : None
_DATEMEASURED = "07-Nov-2013 21:24:56"
_WL_UNIT = A
_WL1 = 1.78897
_WL2 = 1.79285
_WL3 = 1.62079
_WLRATIO = 0.5
_ANODE = Co
_V4_INF_CREATOR = XRDWizard
_V4_INF_CREATOR_VERSION = V2.9.0.22
_V4_INF_WIZARD_VERSION = V2.9.0.22
_V4_INF_WIZARD_ADDINS = V2.9.0.22
_V4_INF_WIZARD_DOCTYPE = XRD
_V4_INF_OSUSER = Postech
_V4_INF_USER = Admin
_V4_INF_SITE = Korea

; Data for range 1
_DRIVE = COUPLED
_STEPTIME = 0.2
_STEPSIZE = 0.1
_STEPMODE = C
_START = 40
_THETA = 20
_2THETA = 40
_KHI = 0
_PHI = 0
_X = 0
_Y = -25
_Z = 0
_DETECTOR = 1
; Detector type : Scintillation counter
_HV = 687
_GAIN = 80
_LLD = 0.69
_ULD = 1.866
_DETECTORSLIT = unkn
_AUX1 = 0
_AUX2 = 0
_AUX3 = 0
_TIMESTARTED = 28
_TEMP_RATE = -1
_TEMP_DELAY = -1
_KV = 35
_MA = 40
_RANGE_WL = 1.78897
_3DPLANE = 0
_V4_ADDITIONALDETECTOR = 0
_V4_D8_DIBNUM = 1
_V4_DETECTORNAME = "Detector 1"
_V4_TTLDETECTOR = None
_V4_DETECTORTYPE = 1
_V4_DETECTORFLAGS = 524545
_V4_DETECTORHV = 687
_V4_DETECTORGAIN = 80
_V4_DETECTORLLD1 = 0.69
_V4_DETECTORWW1 = 1.176
_V4_DETECTORLLD2 = 0
_V4_DETECTORWW2 = 0
_V4_DETECTORPS = 0
_V4_DETECTORDT = 0
_V4_DETECTORPILEUPTIME = 0
_V4_COUNTERS_MASK = 1
_V4_DRIVES_MASK = 0
_V4_ENCODERS_MASK = 0
_2THETACOUNTS = 1
; 2THETA  Cnt1_D1
  40.0000        459
  40.1000        413
  40.2000        462
  40.3000        430
  40.4000        442
  40.5000        451
  40.6000        415
  40.7000        437
  40.8000        458
  40.9000        459
  41.0000        461
  41.1000        400
  41.2000        417
  41.3000        446
  41.4000        430
  41.5000        417
  41.6000        475
  41.7000        476
  41.8000        438
  41.9000        505
  42.0000        440
  42.1000        453
  42.2000        465
  42.3000        476
  42.4000        477
  42.5000        421
  42.6000        481
  42.7000        470
  42.8000        458
  42.9000        460
  43.0000        509
  43.1000        443
  43.2000        427
  43.3000        467
  43.4000        497
  43.5000        446
  43.6000        443
  43.7000        445
  43.8000        486
  43.9000        483
  44.0000        457
  44.1000        461
  44.2000        485
  44.3000        471
  44.4000        486
  44.5000        483
  44.6000        448
  44.7000        458
  44.8000        446
  44.9000        461
  45.0000        453
  45.1000        481
  45.2000        466
  45.3000        449
  45.4000        447
  45.5000        514
  45.6000        478
  45.7000        487
  45.8000        456
  45.9000        478
  46.0000        495
  46.1000        464
  46.2000        489
  46.3000        466
  46.4000        508
  46.5000        451
  46.6000        507
  46.7000        440
  46.8000        513
  46.9000        489
  47.0000        486
  47.1000        494
  47.2000        510
  47.3000        470
  47.4000        473
  47.5000        481
  47.6000        456
  47.7000        501
  47.8000        470
  47.9000        529
  48.0000        460
  48.1000        508
  48.2000        467
  48.3000        495
  48.4000        490
  48.5000        484
  48.6000        481
  48.7000        454
  48.8000        451
  48.9000        486
  49.0000        503
  49.1000        492
  49.2000        446
  49.3000        482
  49.4000        497
  49.5000        457
  49.6000        518
  49.7000        460
  49.8000        480
  49.9000        490
  50.0000        490
  50.1000        451
  50.2000        498
  50.3000        510
  50.4000        510
  50.5000        507
  50.6000        507
  50.7000        507
  50.8000        559
  50.9000        533
  51.0000        483
  51.1000        499
  51.2000        527
  51.3000        545
  51.4000        542
  51.5000        574
  51.6000        717
  51.7000        874
  51.8000        990
  51.9000       1061
  52.0000       1125
  52.1000       1162
  52.2000       1143
  52.3000       1205
  52.4000       1097
  52.5000       1020
  52.6000        875
  52.7000        746
  52.8000        633
  52.9000        578
  53.0000        523
  53.1000        522
  53.2000        520
  53.3000        479
  53.4000        502
  53.5000        541
  53.6000        485
  53.7000        534
  53.8000        475
  53.9000        501
  54.0000        539
  54.1000        511
  54.2000        501
  54.3000        494
  54.4000        512
  54.5000        484
  54.6000        506
  54.7000        516
  54.8000        499
  54.9000        509
  55.0000        508
  55.1000        493
  55.2000        515
  55.3000        518
  55.4000        495
  55.5000        505
  55.6000        522
  55.7000        504
  55.8000        488
  55.9000        487
  56.0000        488
  56.1000        468
  56.2000        527
  56.3000        523
  56.4000        514
  56.5000        531
  56.6000        478
  56.7000        528
  56.8000        512
  56.9000        537
  57.0000        523
  57.1000        486
  57.2000        514
  57.3000        507
  57.4000        545
  57.5000        493
  57.6000        538
  57.7000        499
  57.8000        516
  57.9000        529
  58.0000        545
  58.1000        506
  58.2000        484
  58.3000        529
  58.4000        488
  58.5000        543
  58.6000        537
  58.7000        531
  58.8000        530
  58.9000        464
  59.0000        523
  59.1000        512
  59.2000        527
  59.3000        497
  59.4000        504
  59.5000        513
  59.6000        513
  59.7000        467
  59.8000        495
  59.9000        510
  60.0000        541
  60.1000        530
  60.2000        510
  60.3000        545
  60.4000        531
  60.5000        547
  60.6000        542
  60.7000        528
  60.8000        535
  60.9000        547
  61.0000        526
  61.1000        529
  61.2000        515
  61.3000        537
  61.4000        541
  61.5000        498
  61.6000        515
  61.7000        522
  61.8000        549
  61.9000        572
  62.0000        550
  62.1000        542
  62.2000        520
  62.3000        509
  62.4000        500
  62.5000        536
  62.6000        502
  62.7000        507
  62.8000        527
  62.9000        524
  63.0000        505
  63.1000        523
  63.2000        518
  63.3000        488
  63.4000        461
  63.5000        504
  63.6000        518
  63.7000        529
  63.8000        490
  63.9000        512
  64.0000        511
  64.1000        495
  64.2000        482
  64.3000        498
  64.4000        541
  64.5000        492
  64.6000        466
  64.7000        550
  64.8000        536
  64.9000        509
  65.0000        546
  65.1000        503
  65.2000        515
  65.3000        550
  65.4000        520
  65.5000        518
  65.6000        501
  65.7000        501
  65.8000        565
  65.9000        548
  66.0000        523
  66.1000        523
  66.2000        523
  66.3000        482
  66.4000        489
  66.5000        526
  66.6000        524
  66.7000        511
  66.8000        469
  66.9000        521
  67.0000        527
  67.1000        504
  67.2000        558
  67.3000        508
  67.4000        493
  67.5000        516
  67.6000        506
  67.7000        540
  67.8000        540
  67.9000        518
  68.0000        517
  68.1000        486
  68.2000        555
  68.3000        524
  68.4000        560
  68.5000        529
  68.6000        484
  68.7000        527
  68.8000        549
  68.9000        554
  69.0000        470
  69.1000        556
  69.2000        548
  69.3000        547
  69.4000        501
  69.5000        525
  69.6000        484
  69.7000        527
  69.8000        535
  69.9000        497
  70.0000        535
  70.1000        529
  70.2000        491
  70.3000        480
  70.4000        495
  70.5000        482
  70.6000        524
  70.7000        530
  70.8000        517
  70.9000        538
  71.0000        522
  71.1000        560
  71.2000        518
  71.3000        535
  71.4000        531
  71.5000        532
  71.6000        565
  71.7000        533
  71.8000        540
  71.9000        480
  72.0000        521
  72.1000        519
  72.2000        523
  72.3000        499
  72.4000        487
  72.5000        504
  72.6000        556
  72.7000        508
  72.8000        536
  72.9000        480
  73.0000        487
  73.1000        520
  73.2000        513
  73.3000        500
  73.4000        502
  73.5000        490
  73.6000        551
  73.7000        485
  73.8000        482
  73.9000        540
  74.0000        469
  74.1000        500
  74.2000        505
  74.3000        513
  74.4000        479
  74.5000        516
  74.6000        504
  74.7000        495
  74.8000        544
  74.9000        490
  75.0000        520
  75.1000        553
  75.2000        513
  75.3000        523
  75.4000        551
  75.5000        540
  75.6000        530
  75.7000        547
  75.8000        523
  75.9000        615
  76.0000        615
  76.1000        687
  76.2000        760
  76.3000        805
  76.4000        916
  76.5000       1006
  76.6000       1085
  76.7000       1122
  76.8000       1147
  76.9000       1077
  77.0000       1078
  77.1000       1000
  77.2000        874
  77.3000        865
  77.4000        720
  77.5000        691
  77.6000        589
  77.7000        623
  77.8000        578
  77.9000        545
  78.0000        555
  78.1000        505
  78.2000        547
  78.3000        546
  78.4000        540
  78.5000        507
  78.6000        562
  78.7000        568
  78.8000        563
  78.9000        520
  79.0000        506
  79.1000        526
  79.2000        527
  79.3000        515
  79.4000        525
  79.5000        542
  79.6000        526
  79.7000        540
  79.8000        523
  79.9000        489
  80.0000        487
  80.1000        535
  80.2000        526
  80.3000        560
  80.4000        506
  80.5000        518
  80.6000        518
  80.7000        513
  80.8000        465
  80.9000        520
  81.0000        498
  81.1000        505
  81.2000        535
  81.3000        484
  81.4000        519
  81.5000        528
  81.6000        516
  81.7000        523
  81.8000        556
  81.9000        547
  82.0000        541
  82.1000        521
  82.2000        579
  82.3000        494
  82.4000        508
  82.5000        526
  82.6000        518
  82.7000        497
  82.8000        518
  82.9000        541
  83.0000        531
  83.1000        495
  83.2000        485
  83.3000        550
  83.4000        516
  83.5000        547
  83.6000        560
  83.7000        485
  83.8000        522
  83.9000        481
  84.0000        511
  84.1000        486
  84.2000        545
  84.3000        488
  84.4000        507
  84.5000        538
  84.6000        525
  84.7000        491
  84.8000        522
  84.9000        508
  85.0000        501
  85.1000        539
  85.2000        573
  85.3000        503
  85.4000        463
  85.5000        535
  85.6000        514
  85.7000        510
  85.8000        456
  85.9000        499
  86.0000        485
  86.1000        508
  86.2000        509
  86.3000        511
  86.4000        537
  86.5000        513
  86.6000        490
  86.7000        506
  86.8000        484
  86.9000        529
  87.0000        521
  87.1000        540
  87.2000        524
  87.3000        527
  87.4000        476
  87.5000        504
  87.6000        528
  87.7000        488
  87.8000        523
  87.9000        510
  88.0000        517
  88.1000        511
  88.2000        514
  88.3000        561
  88.4000        545
  88.5000        541
  88.6000        533
  88.7000        514
  88.8000        498
  88.9000        504
  89.0000        555
  89.1000        514
  89.2000        499
  89.3000        491
  89.4000        527
  89.5000        558
  89.6000        504
  89.7000        482
  89.8000        490
  89.9000        537
  90.0000        535
  90.1000        474
  90.2000        486
  90.3000        509
  90.4000        539
  90.5000        476
  90.6000        504
  90.7000        492
  90.8000        525
  90.9000        511
  91.0000        545
  91.1000        501
  91.2000        499
  91.3000        522
  91.4000        517
  91.5000        497
  91.6000        519
  91.7000        510
  91.8000        534
  91.9000        552
  92.0000        519
  92.1000        528
  92.2000        554
  92.3000        534
  92.4000        535
  92.5000        486
  92.6000        515
  92.7000        528
  92.8000        512
  92.9000        501
  93.0000        488
  93.1000        494
  93.2000        529
  93.3000        491
  93.4000        518
  93.5000        527
  93.6000        497
  93.7000        503
  93.8000        520
  93.9000        496
  94.0000        532
  94.1000        480
  94.2000        504
  94.3000        532
  94.4000        521
  94.5000        499
  94.6000        544
  94.7000        523
  94.8000        537
  94.9000        518
  95.0000        501
  95.1000        514
  95.2000        519
  95.3000        531
  95.4000        550
  95.5000        534
  95.6000        538
  95.7000        515
  95.8000        538
  95.9000        516
  96.0000        519
  96.1000        573
  96.2000        506
  96.3000        540
  96.4000        525
  96.5000        538
  96.6000        517
  96.7000        517
  96.8000        537
  96.9000        532
  97.0000        529
  97.1000        554
  97.2000        561
  97.3000        593
  97.4000        533
  97.5000        578
  97.6000        576
  97.7000        500
  97.8000        541
  97.9000        575
  98.0000        587
  98.1000        569
  98.2000        588
  98.3000        599
  98.4000        683
  98.5000        817
  98.6000        959
  98.7000       1053
  98.8000       1216
  98.9000       1288
  99.0000       1428
  99.1000       1574
  99.2000       1589
  99.3000       1576
  99.4000       1567
  99.5000       1453
  99.6000       1311
  99.7000       1232
  99.8000       1023
  99.9000        930
 100.0000        764
 100.1000        669
 100.2000        671
 100.3000        639
 100.4000        621
 100.5000        610
 100.6000        565
 100.7000        576
 100.8000        589
 100.9000        527
 101.0000        545
 101.1000        535
 101.2000        504
 101.3000        537
 101.4000        521
 101.5000        530
 101.6000        515
 101.7000        501
 101.8000        531
 101.9000        525
 102.0000        493
 102.1000        518
 102.2000        507
 102.3000        556
 102.4000        540
 102.5000        544
 102.6000        550
 102.7000        490
 102.8000        462
 102.9000        527
 103.0000        503
 103.1000        462
 103.2000        505
 103.3000        526
 103.4000        497
 103.5000        552
 103.6000        525
 103.7000        558
 103.8000        519
 103.9000        513
 104.0000        501
 104.1000        530
 104.2000        525
 104.3000        574
 104.4000        540
 104.5000        550
 104.6000        546
 104.7000        559
 104.8000        527
 104.9000        515
 105.0000        504
 105.1000        545
 105.2000        523
 105.3000        508
 105.4000        478
 105.5000        514
 105.6000        535
 105.7000        523
 105.8000        496
 105.9000        513
 106.0000        515
 106.1000        519
 106.2000        515
 106.3000        505
 106.4000        473
 106.5000        516
 106.6000        560
 106.7000        522
 106.8000        559
 106.9000        540
 107.0000        519
 107.1000        571
 107.2000        506
 107.3000        523
 107.4000        508
 107.5000        556
 107.6000        467
 107.7000        519
 107.8000        469
 107.9000        501
 108.0000        541
 108.1000        504
 108.2000        523
 108.3000        510
 108.4000        500
 108.5000        554
 108.6000        523
 108.7000        514
 108.8000        529
 108.9000        527
 109.0000        498
 109.1000        550
 109.2000        516
 109.3000        503
 109.4000        536
 109.5000        515
 109.6000        503
 109.7000        502
 109.8000        496
 109.9000        490
 110.0000        514
 110.1000        506
 110.2000        527
 110.3000        562
 110.4000        486
 110.5000        488
 110.6000        566
 110.7000        552
 110.8000        527
 110.9000        491
 111.0000        510
 111.1000        507
 111.2000        507
 111.3000        510
 111.4000        508
 111.5000        464
 111.6000        544
 111.7000        527
 111.8000        493
 111.9000        505
 112.0000        521
 112.1000        540
 112.2000        484
 112.3000        496
 112.4000        538
 112.5000        581
 112.6000        552
 112.7000        492
 112.8000        478
 112.9000        505
 113.0000        498
 113.1000        510
 113.2000        479
 113.3000        508
 113.4000        502
 113.5000        504
 113.6000        540
 113.7000        540
 113.8000        507
 113.9000        519
 114.0000        536
 114.1000        520
 114.2000        450
 114.3000        553
 114.4000        508
 114.5000        528
 114.6000        513
 114.7000        542
 114.8000        509
 114.9000        540
 115.0000        540
 115.1000        484
 115.2000        513
 115.3000        474
 115.4000        481
 115.5000        517
 115.6000        469
 115.7000        522
 115.8000        498
 115.9000        536
 116.0000        492
 116.1000        492
 116.2000        537
 116.3000        508
 116.4000        523
 116.5000        499
 116.6000        535
 116.7000        549
 116.8000        537
 116.9000        494
 117.0000        537
 117.1000        510
 117.2000        541
 117.3000        528
 117.4000        524
 117.5000        511
 117.6000        507
 117.7000        518
 117.8000        512
 117.9000        516
 118.0000        506
 118.1000        496
 118.2000        531
 118.3000        502
 118.4000        534
 118.5000        493
 118.6000        519
 118.7000        563
 118.8000        473
 118.9000        556
 119.0000        489
 119.1000        520
 119.2000        507
 119.3000        488
 119.4000        486
 119.5000        520
 119.6000        556
 119.7000        504
 119.8000        558
 119.9000        521
 120.0000        509
 120.1000        510
 120.2000        522
 120.3000        519
 120.4000        496
 120.5000        512
 120.6000        534
 120.7000        478
 120.8000        558
 120.9000        511
 121.0000        529
 121.1000        509
 121.2000        515
 121.3000        500
 121.4000        527
 121.5000        481
 121.6000        523
 121.7000        474
 121.8000        498
 121.9000        562
 122.0000        515
 122.1000        492
 122.2000        530
 122.3000        505
 122.4000        522
 122.5000        578
 122.6000        542
 122.7000        486
 122.8000        568
 122.9000        516
 123.0000        564
 123.1000        522
 123.2000        582
 123.3000        564
 123.4000        579
 123.5000        566
 123.6000        551
 123.7000        537
 123.8000        537
 123.9000        571
 124.0000        519
 124.1000        522
 124.2000        494
 124.3000        569
 124.4000        539
 124.5000        500
 124.6000        519
 124.7000        518
 124.8000        546
 124.9000        535
 125.0000        529
 125.1000        525
 125.2000        533
 125.3000        509
 125.4000        486
 125.5000        466
 125.6000        516
 125.7000        496
 125.8000        533
 125.9000        514
 126.0000        539
 126.1000        531
 126.2000        459
 126.3000        521
 126.4000        509
 126.5000        525
 126.6000        541
 126.7000        533
 126.8000        499
 126.9000        587
 127.0000        520
 127.1000        514
 127.2000        500
 127.3000        527
 127.4000        491
 127.5000        510
 127.6000        506
 127.7000        509
 127.8000        495
 127.9000        509
 128.0000        496
 128.1000        536
 128.2000        509
 128.3000        510
 128.4000        531
 128.5000        491
 128.6000        486
 128.7000        529
 128.8000        521
 128.9000        524
 129.0000        513
 129.1000        523
 129.2000        535
 129.3000        483
 129.4000        534
 129.5000        530
 129.6000        536
 129.7000        536
 129.8000        496
 129.9000        538
 130.0000        546

; Data for range 2
_DRIVE = COUPLED
_STEPTIME = 0.2
_STEPSIZE = 0.1
_STEPMODE = C
_START = 40
_THETA = 20
_2THETA = 40
_KHI = 10.5
_PHI = 60
_X = 0
_Y = -25
_Z = 0
_DETECTOR = 1
; Detector type : Scintillation counter
_HV = 687
_GAIN = 80
_LLD = 0.69
_ULD = 1.866
_DETECTORSLIT = unkn
_AUX1 = 0
_AUX2 = 0
_AUX3 = 0
_TIMESTARTED = 225
_TEMP_RATE = -1
_TEMP_DELAY = -1
_KV = 35
_MA = 40
_RANGE_WL = 1.78897
_3DPLANE = 0
_V4_ADDITIONALDETECTOR = 0
_V4_D8_DIBNUM = 1
_V4_DETECTORNAME = "Detector 1"
_V4_TTLDETECTOR = None
_V4_DETECTORTYPE = 1
_V4_DETECTORFLAGS = 524545
_V4_DETECTORHV = 687
_V4_DETECTORGAIN = 80
_V4_DETECTORLLD1 = 0.69
_V4_DETECTORWW1 = 1.176
_V4_DETECTORLLD2 = 0
_V4_DETECTORWW2 = 0
_V4_DETECTORPS = 0
_V4_DETECTORDT = 0
_V4_DETECTORPILEUPTIME = 0
_V4_COUNTERS_MASK = 1
_V4_DRIVES_MASK = 0
_V4_ENCODERS_MASK = 0
_2THETACOUNTS = 1
; 2THETA  Cnt1_D1
  40.0000        546
  40.1000        568
  40.2000        589
  40.3000        521
  40.4000        518
  40.5000        565
  40.6000        562
  40.7000        549
  40.8000        528
  40.9000        554
  41.0000        559
  41.1000        529
  41.2000        512
  41.3000        540
  41.4000        535
  41.5000        532
  41.6000        546
  41.7000        587
  41.8000        518
  41.9000        504
  42.0000        522
  42.1000        559
  42.2000        544
  42.3000        558
  42.4000        534
  42.5000        523
  42.6000        541
  42.7000        558
  42.8000        573
  42.9000        500
  43.0000        551
  43.1000        569
  43.2000        535
  43.3000        577
  43.4000        544
  43.5000        514
  43.6000        517
  43.7000        538
  43.8000        522
  43.9000        545
  44.0000        508
  44.1000        538
  44.2000        558
  44.3000        533
  44.4000        542
  44.5000        527
  44.6000        532
  44.7000        513
  44.8000        523
  44.9000        556
  45.0000        502
  45.1000        519
  45.2000        528
  45.3000        547
  45.4000        528
  45.5000        523
  45.6000        498
  45.7000        508
  45.8000        524
  45.9000        591
  46.0000        521
  46.1000        531
  46.2000        529
  46.3000        575
  46.4000        484
  46.5000        561
  46.6000        542
  46.7000        535
  46.8000        500
  46.9000        522
  47.0000        548
  47.1000        570
  47.2000        545
  47.3000        493
  47.4000        528
  47.5000        559
  47.6000        545
  47.7000        526
  47.8000        567
  47.9000        505
  48.0000        477
  48.1000        491
  48.2000        539
  48.3000        507
  48.4000        528
  48.5000        523
  48.6000        569
  48.7000        519
  48.8000        512
  48.9000        537
  49.0000        532
  49.1000        478
  49.2000        511
  49.3000        539
  49.4000        523
  49.5000        532
  49.6000        546
  49.7000        505
  49.8000        547
  49.9000        541
  50.0000        523
  50.1000        556
  50.2000        513
  50.3000        557
  50.4000        539
  50.5000        567
  50.6000        550
  50.7000        531
  50.8000        563
  50.9000        536
  51.0000        544
  51.1000        590
  51.2000        541
  51.3000        529
  51.4000        589
  51.5000        746
  51.6000        852
  51.7000        965
  51.8000       1106
  51.9000       1241
  52.0000       1247
  52.1000       1266
  52.2000       1314
  52.3000       1343
  52.4000       1256
  52.5000       1052
  52.6000        915
  52.7000        791
  52.8000        649
  52.9000        582
  53.0000        568
  53.1000        535
  53.2000        548
  53.3000        519
  53.4000        525
  53.5000        582
  53.6000        519
  53.7000        527
  53.8000        537
  53.9000        536
  54.0000        541
  54.1000        538
  54.2000        542
  54.3000        491
  54.4000        490
  54.5000        499
  54.6000        539
  54.7000        540
  54.8000        507
  54.9000        554
  55.0000        493
  55.1000        553
  55.2000        515
  55.3000        558
  55.4000        525
  55.5000        526
  55.6000        526
  55.7000        499
  55.8000        566
  55.9000        520
  56.0000        528
  56.1000        548
  56.2000        503
  56.3000        536
  56.4000        526
  56.5000        579
  56.6000        539
  56.7000        502
  56.8000        475
  56.9000        523
  57.0000        525
  57.1000        514
  57.2000        563
  57.3000        538
  57.4000        536
  57.5000        507
  57.6000        526
  57.7000        518
  57.8000        520
  57.9000        547
  58.0000        519
  58.1000        517
  58.2000        526
  58.3000        571
  58.4000        578
  58.5000        535
  58.6000        523
  58.7000        551
  58.8000        508
  58.9000        543
  59.0000        529
  59.1000        534
  59.2000        499
  59.3000        535
  59.4000        532
  59.5000        559
  59.6000        574
  59.7000        496
  59.8000        509
  59.9000        513
  60.0000        500
  60.1000        518
  60.2000        526
  60.3000        538
  60.4000        549
  60.5000        505
  60.6000        511
  60.7000        510
  60.8000        538
  60.9000        522
  61.0000        504
  61.1000        539
  61.2000        496
  61.3000        497
  61.4000        532
  61.5000        537
  61.6000        515
  61.7000        477
  61.8000        502
  61.9000        503
  62.0000        517
  62.1000        530
  62.2000        507
  62.3000        526
  62.4000        502
  62.5000        495
  62.6000        537
  62.7000        523
  62.8000        495
  62.9000        483
  63.0000        515
  63.1000        513
  63.2000        483
  63.3000        564
  63.4000        499
  63.5000        541
  63.6000        518
  63.7000        459
  63.8000        525
  63.9000        531
  64.0000        521
  64.1000        529
  64.2000        509
  64.3000        549
  64.4000        508
  64.5000        519
  64.6000        499
  64.7000        561
  64.8000        549
  64.9000        543
  65.0000        474
  65.1000        496
  65.2000        512
  65.3000        505
  65.4000        515
  65.5000        502
  65.6000        550
  65.7000        520
  65.8000        550
  65.9000        491
  66.0000        511
  66.1000        460
  66.2000        515
  66.3000        500
  66.4000        503
  66.5000        485
  66.6000        496
  66.7000        498
  66.8000        539
  66.9000        524
  67.0000        549
  67.1000        510
  67.2000        503
  67.3000        511
  67.4000        508
  67.5000        520
  67.6000        555
  67.7000        497
  67.8000        510
  67.9000        545
  68.0000        530
  68.1000        522
  68.2000        521
  68.3000        521
  68.4000        526
  68.5000        517
  68.6000        508
  68.7000        522
  68.8000        474
  68.9000        520
  69.0000        494
  69.1000        528
  69.2000        530
  69.3000        502
  69.4000        495
  69.5000        509
  69.6000        496
  69.7000        482
  69.8000        514
  69.9000        535
  70.0000        516
  70.1000        493
  70.2000        503
  70.3000        512
  70.4000        505
  70.5000        478
  70.6000        521
  70.7000        478
  70.8000        503
  70.9000        502
  71.0000        525
  71.1000        513
  71.2000        496
  71.3000        514
  71.4000        526
  71.5000        513
  71.6000        563
  71.7000        532
  71.8000        529
  71.9000        459
  72.0000        543
  72.1000        528
  72.2000        533
  72.3000        507
  72.4000        505
  72.5000        523
  72.6000        484
  72.7000        488
  72.8000        452
  72.9000        548
  73.0000        555
  73.1000        508
  73.2000        477
  73.3000        503
  73.4000        538
  73.5000        534
  73.6000        492
  73.7000        506
  73.8000        487
  73.9000        504
  74.0000        530
  74.1000        477
  74.2000        504
  74.3000        521
  74.4000        522
  74.5000        522
  74.6000        506
  74.7000        542
  74.8000        519
  74.9000        529
  75.0000        502
  75.1000        533
  75.2000        587
  75.3000        535
  75.4000        559
  75.5000        505
  75.6000        534
  75.7000        544
  75.8000        501
  75.9000        564
  76.0000        609
  76.1000        598
  76.2000        618
  76.3000        681
  76.4000        723
  76.5000        766
  76.6000        767
  76.7000        786
  76.8000        793
  76.9000        756
  77.0000        809
  77.1000        737
  77.2000        719
  77.3000        690
  77.4000        640
  77.5000        601
  77.6000        599
  77.7000        548
  77.8000        573
  77.9000        604
  78.0000        543
  78.1000        535
  78.2000        527
  78.3000        581
  78.4000        523
  78.5000        530
  78.6000        523
  78.7000        510
  78.8000        533
  78.9000        528
  79.0000        485
  79.1000        578
  79.2000        547
  79.3000        488
  79.4000        548
  79.5000        493
  79.6000        487
  79.7000        513
  79.8000        529
  79.9000        480
  80.0000        486
  80.1000        514
  80.2000        522
  80.3000        484
  80.4000        523
  80.5000        504
  80.6000        514
  80.7000        559
  80.8000        508
  80.9000        533
  81.0000        492
  81.1000        534
  81.2000        521
  81.3000        525
  81.4000        519
  81.5000        502
  81.6000        537
  81.7000        533
  81.8000        499
  81.9000        511
  82.0000        493
  82.1000        499
  82.2000        478
  82.3000        526
  82.4000        519
  82.5000        572
  82.6000        514
  82.7000        533
  82.8000        520
  82.9000        516
  83.0000        520
  83.1000        501
  83.2000        509
  83.3000        559
  83.4000        525
  83.5000        515
  83.6000        511
  83.7000        511
  83.8000        518
  83.9000        530
  84.0000        532
  84.1000        514
  84.2000        505
  84.3000        527
  84.4000        499
  84.5000        532
  84.6000        527
  84.7000        458
  84.8000        504
  84.9000        513
  85.0000        505
  85.1000        497
  85.2000        532
  85.3000        580
  85.4000        534
  85.5000        500
  85.6000        484
  85.7000        486
  85.8000        551
  85.9000        521
  86.0000        498
  86.1000        501
  86.2000        487
  86.3000        520
  86.4000        515
  86.5000        500
  86.6000        538
  86.7000        495
  86.8000        504
  86.9000        521
  87.0000        517
  87.1000        547
  87.2000        486
  87.3000        523
  87.4000        501
  87.5000        520
  87.6000        465
  87.7000        519
  87.8000        486
  87.9000        557
  88.0000        555
  88.1000        515
  88.2000        503
  88.3000        525
  88.4000        527
  88.5000        502
  88.6000        461
  88.7000        536
  88.8000        507
  88.9000        499
  89.0000        524
  89.1000        510
  89.2000        530
  89.3000        500
  89.4000        482
  89.5000        514
  89.6000        516
  89.7000        564
  89.8000        507
  89.9000        502
  90.0000        510
  90.1000        515
  90.2000        519
  90.3000        493
  90.4000        486
  90.5000        512
  90.6000        526
  90.7000        523
  90.8000        523
  90.9000        489
  91.0000        533
  91.1000        504
  91.2000        505
  91.3000        506
  91.4000        502
  91.5000        538
  91.6000        509
  91.7000        483
  91.8000        534
  91.9000        512
  92.0000        508
  92.1000        498
  92.2000        543
  92.3000        495
  92.4000        554
  92.5000        538
  92.6000        543
  92.7000        509
  92.8000        531
  92.9000        508
  93.0000        484
  93.1000        506
  93.2000        509
  93.3000        485
  93.4000        564
  93.5000        560
  93.6000        550
  93.7000        512
  93.8000        525
  93.9000        499
  94.0000        529
  94.1000        525
  94.2000        541
  94.3000        501
  94.4000        515
  94.5000        525
  94.6000        471
  94.7000        535
  94.8000        498
  94.9000        492
  95.0000        536
  95.1000        525
  95.2000        518
  95.3000        525
  95.4000        514
  95.5000        556
  95.6000        552
  95.7000        506
  95.8000        561
  95.9000        522
  96.0000        520
  96.1000        533
  96.2000        486
  96.3000        503
  96.4000        537
  96.5000        502
  96.6000        491
  96.7000        531
  96.8000        494
  96.9000        488
  97.0000        496
  97.1000        502
  97.2000        508
  97.3000        516
  97.4000        541
  97.5000        507
  97.6000        547
  97.7000        532
  97.8000        536
  97.9000        518
  98.0000        527
  98.1000        612
  98.2000        536
  98.3000        582
  98.4000        612
  98.5000        660
  98.6000        716
  98.7000        810
  98.8000        882
  98.9000        936
  99.0000       1022
  99.1000       1080
  99.2000       1085
  99.3000       1058
  99.4000       1026
  99.5000       1006
  99.6000        999
  99.7000        858
  99.8000        837
  99.9000        751
 100.0000        702
 100.1000        672
 100.2000        606
 100.3000        587
 100.4000        581
 100.5000        550
 100.6000        588
 100.7000        513
 100.8000        539
 100.9000        481
 101.0000        517
 101.1000        511
 101.2000        518
 101.3000        522
 101.4000        516
 101.5000        526
 101.6000        518
 101.7000        493
 101.8000        558
 101.9000        544
 102.0000        564
 102.1000        507
 102.2000        523
 102.3000        540
 102.4000        517
 102.5000        503
 102.6000        512
 102.7000        529
 102.8000        540
 102.9000        511
 103.0000        525
 103.1000        519
 103.2000        522
 103.3000        504
 103.4000        507
 103.5000        528
 103.6000        509
 103.7000        523
 103.8000        566
 103.9000        484
 104.0000        514
 104.1000        527
 104.2000        478
 104.3000        505
 104.4000        525
 104.5000        536
 104.6000        536
 104.7000        496
 104.8000        518
 104.9000        525
 105.0000        523
 105.1000        508
 105.2000        474
 105.3000        473
 105.4000        481
 105.5000        519
 105.6000        520
 105.7000        504
 105.8000        501
 105.9000        509
 106.0000        485
 106.1000        505
 106.2000        509
 106.3000        492
 106.4000        519
 106.5000        499
 106.6000        523
 106.7000        524
 106.8000        489
 106.9000        517
 107.0000        515
 107.1000        506
 107.2000        567
 107.3000        535
 107.4000        531
 107.5000        520
 107.6000        542
 107.7000        483
 107.8000        531
 107.9000        528
 108.0000        529
 108.1000        517
 108.2000        534
 108.3000        502
 108.4000        509
 108.5000        535
 108.6000        554
 108.7000        511
 108.8000        541
 108.9000        533
 109.0000        463
 109.1000        509
 109.2000        533
 109.3000        546
 109.4000        506
 109.5000        542
 109.6000        527
 109.7000        536
 109.8000        523
 109.9000        537
 110.0000        505
 110.1000        555
 110.2000        547
 110.3000        515
 110.4000        513
 110.5000        520
 110.6000        527
 110.7000        521
 110.8000        501
 110.9000        495
 111.0000        512
 111.1000        512
 111.2000        546
 111.3000        526
 111.4000        480
 111.5000        486
 111.6000        464
 111.7000        521
 111.8000        526
 111.9000        532
 112.0000        492
 112.1000        521
 112.2000        491
 112.3000        510
 112.4000        474
 112.5000        498
 112.6000        518
 112.7000        485
 112.8000        536
 112.9000        497
 113.0000        492
 113.1000        523
 113.2000        519
 113.3000        510
 113.4000        520
 113.5000        540
 113.6000        540
 113.7000        512
 113.8000        472
 113.9000        498
 114.0000        544
 114.1000        464
 114.2000        482
 114.3000        539
 114.4000        558
 114.5000        516
 114.6000        512
 114.7000        511
 114.8000        496
 114.9000        532
 115.0000        555
 115.1000        490
 115.2000        523
 115.3000        489
 115.4000        517
 115.5000        523
 115.6000        513
 115.7000        568
 115.8000        489
 115.9000        534
 116.0000        521
 116.1000        509
 116.2000        457
 116.3000        510
 116.4000        505
 116.5000        506
 116.6000        493
 116.7000        476
 116.8000        474
 116.9000        483
 117.0000        519
 117.1000        535
 117.2000        518
 117.3000        489
 117.4000        476
 117.5000        484
 117.6000        539
 117.7000        524
 117.8000        525
 117.9000        516
 118.0000        509
 118.1000        510
 118.2000        521
 118.3000        498
 118.4000        489
 118.5000        481
 118.6000        517
 118.7000        476
 118.8000        547
 118.9000        524
 119.0000        545
 119.1000        479
 119.2000        480
 119.3000        482
 119.4000        530
 119.5000        529
 119.6000        496
 119.7000        497
 119.8000        536
 119.9000        517
 120.0000        519
 120.1000        520
 120.2000        504
 120.3000        464
 120.4000        538
 120.5000        488
 120.6000        525
 120.7000        494
 120.8000        506
 120.9000        515
 121.0000        525
 121.1000        464
 121.2000        532
 121.3000        533
 121.4000        540
 121.5000        481
 121.6000        505
 121.7000        485
 121.8000        554
 121.9000        525
 122.0000        514
 122.1000        518
 122.2000        494
 122.3000        518
 122.4000        479
 122.5000        512
 122.6000        530
 122.7000        543
 122.8000        603
 122.9000        515
 123.0000        541
 123.1000        577
 123.2000        518
 123.3000        564
 123.4000        571
 123.5000        544
 123.6000        568
 123.7000        572
 123.8000        571
 123.9000        544
 124.0000        571
 124.1000        541
 124.2000        543
 124.3000        574
 124.4000        496
 124.5000        533
 124.6000        534
 124.7000        526
 124.8000        463
 124.9000        548
 125.0000        524
 125.1000        508
 125.2000        509
 125.3000        495
 125.4000        511
 125.5000        516
 125.6000        518
 125.7000        507
 125.8000        522
 125.9000        503
 126.0000        530
 126.1000        528
 126.2000        502
 126.3000        521
 126.4000        507
 126.5000        489
 126.6000        489
 126.7000        503
 126.8000        508
 126.9000        517
 127.0000        522
 127.1000        476
 127.2000        514
 127.3000        556
 127.4000        521
 127.5000        475
[...]
 129.1000        455
 129.2000        455
 129.3000        445
 129.4000        433
 129.5000        449
 129.6000        440
 129.7000        406
 129.8000        445
 129.9000        425
 130.0000        423

; Data for range 53
_DRIVE = COUPLED
_STEPTIME = 0.2
_STEPSIZE = 0.1
_STEPMODE = C
_START = 40
_THETA = 20
_2THETA = 40
_KHI = 80
_PHI = 0
_X = 0
_Y = -25
_Z = 0
_DETECTOR = 1
; Detector type : Scintillation counter
_HV = 687
_GAIN = 80
_LLD = 0.69
_ULD = 1.866
_DETECTORSLIT = unkn
_AUX1 = 0
_AUX2 = 0
_AUX3 = 0
_TIMESTARTED = 1.03e+004
_TEMP_RATE = -1
_TEMP_DELAY = -1
_KV = 35
_MA = 40
_RANGE_WL = 1.78897
_3DPLANE = 0
_V4_ADDITIONALDETECTOR = 0
_V4_D8_DIBNUM = 1
_V4_DETECTORNAME = "Detector 1"
_V4_TTLDETECTOR = None
_V4_DETECTORTYPE = 1
_V4_DETECTORFLAGS = 524545
_V4_DETECTORHV = 687
_V4_DETECTORGAIN = 80
_V4_DETECTORLLD1 = 0.69
_V4_DETECTORWW1 = 1.176
_V4_DETECTORLLD2 = 0
_V4_DETECTORWW2 = 0
_V4_DETECTORPS = 0
_V4_DETECTORDT = 0
_V4_DETECTORPILEUPTIME = 0
_V4_COUNTERS_MASK = 1
_V4_DRIVES_MASK = 0
_V4_ENCODERS_MASK = 0
_2THETACOUNTS = 1
; 2THETA  Cnt1_D1
  40.0000        120
  40.1000        123
  40.2000        121
  40.3000        112
  40.4000        116
  40.5000        122
  40.6000        102
  40.7000        115
  40.8000        126
  40.9000        123
  41.0000        103
  41.1000        124
  41.2000        124
  41.3000        115
  41.4000        124
  41.5000        124
  41.6000        114
  41.7000        116
  41.8000        115
  41.9000        105
  42.0000        131
  42.1000        111
  42.2000        123
  42.3000        142
  42.4000        129
  42.5000        123
  42.6000        114
  42.7000        131
  42.8000        119
  42.9000        120
  43.0000        128
  43.1000        147
  43.2000        170
  43.3000        161
  43.4000        151
  43.5000        169
  43.6000        188
  43.7000        194
  43.8000        187
  43.9000        168
  44.0000        165
  44.1000        152
  44.2000        151
  44.3000        149
  44.4000        130
  44.5000        123
  44.6000        132
  44.7000        118
  44.8000        113
  44.9000        142
  45.0000        141
  45.1000        134
  45.2000        118
  45.3000        121
  45.4000        127
  45.5000        125
  45.6000        124
  45.7000        144
  45.8000        143
  45.9000        132
  46.0000        128
  46.1000        115
  46.2000        114
  46.3000        128
  46.4000        118
  46.5000        119
  46.6000        132
  46.7000        144
  46.8000        126
  46.9000        128
  47.0000        164
  47.1000        130
  47.2000        136
  47.3000        145
  47.4000        136
  47.5000        128
  47.6000        135
  47.7000        125
  47.8000        132
  47.9000        139
  48.0000        138
  48.1000        142
  48.2000        139
  48.3000        149
  48.4000        138
  48.5000        137
  48.6000        122
  48.7000        116
  48.8000        141
  48.9000        133
  49.0000        139
  49.1000        119
  49.2000        148
  49.3000        145
  49.4000        155
  49.5000        135
  49.6000        125
  49.7000        154
  49.8000        112
  49.9000        138
  50.0000        148
  50.1000        164
  50.2000        136
  50.3000        135
  50.4000        152
  50.5000        198
  50.6000        164
  50.7000        170
  50.8000        203
  50.9000        207
  51.0000        189
  51.1000        173
  51.2000        186
  51.3000        209
  51.4000        252
  51.5000        275
  51.6000        329
  51.7000        429
  51.8000        437
  51.9000        502
  52.0000        590
  52.1000        614
  52.2000        655
  52.3000        671
  52.4000        686
  52.5000        666
  52.6000        580
  52.7000        567
  52.8000        473
  52.9000        388
  53.0000        350
  53.1000        302
  53.2000        240
  53.3000        209
  53.4000        156
  53.5000        180
  53.6000        172
  53.7000        155
  53.8000        166
  53.9000        153
  54.0000        146
  54.1000        167
  54.2000        159
  54.3000        148
  54.4000        166
  54.5000        157
  54.6000        167
  54.7000        160
  54.8000        167
  54.9000        152
  55.0000        168
  55.1000        188
  55.2000        152
  55.3000        144
  55.4000        155
  55.5000        135
  55.6000        179
  55.7000        184
  55.8000        149
  55.9000        173
  56.0000        139
  56.1000        167
  56.2000        165
  56.3000        163
  56.4000        156
  56.5000        157
  56.6000        154
  56.7000        166
  56.8000        160
  56.9000        161
  57.0000        139
  57.1000        142
  57.2000        130
  57.3000        155
  57.4000        152
  57.5000        186
  57.6000        164
  57.7000        148
  57.8000        153
  57.9000        149
  58.0000        165
  58.1000        163
  58.2000        160
  58.3000        152
  58.4000        162
  58.5000        166
  58.6000        172
  58.7000        150
  58.8000        157
  58.9000        182
  59.0000        131
  59.1000        175
  59.2000        172
  59.3000        160
  59.4000        166
  59.5000        153
  59.6000        155
  59.7000        183
  59.8000        148
  59.9000        170
  60.0000        161
  60.1000        166
  60.2000        194
  60.3000        170
  60.4000        187
  60.5000        156
  60.6000        177
  60.7000        184
  60.8000        167
  60.9000        201
  61.0000        160
  61.1000        154
  61.2000        198
  61.3000        172
  61.4000        166
  61.5000        160
  61.6000        163
  61.7000        170
  61.8000        149
  61.9000        169
  62.0000        184
  62.1000        192
  62.2000        157
  62.3000        170
  62.4000        176
  62.5000        198
  62.6000        188
  62.7000        174
  62.8000        183
  62.9000        186
  63.0000        185
  63.1000        184
  63.2000        182
  63.3000        205
  63.4000        194
  63.5000        188
  63.6000        175
  63.7000        174
  63.8000        183
  63.9000        181
  64.0000        159
  64.1000        184
  64.2000        182
  64.3000        163
  64.4000        181
  64.5000        188
  64.6000        176
  64.7000        190
  64.8000        194
  64.9000        185
  65.0000        192
  65.1000        187
  65.2000        207
  65.3000        186
  65.4000        202
  65.5000        177
  65.6000        203
  65.7000        194
  65.8000        186
  65.9000        194
  66.0000        186
  66.1000        208
  66.2000        193
  66.3000        191
  66.4000        199
  66.5000        190
  66.6000        172
  66.7000        183
  66.8000        210
  66.9000        220
  67.0000        195
  67.1000        163
  67.2000        201
  67.3000        198
  67.4000        183
  67.5000        207
  67.6000        205
  67.7000        192
  67.8000        181
  67.9000        187
  68.0000        197
  68.1000        196
  68.2000        189
  68.3000        208
  68.4000        204
  68.5000        186
  68.6000        196
  68.7000        201
  68.8000        220
  68.9000        212
  69.0000        180
  69.1000        211
  69.2000        175
  69.3000        190
  69.4000        194
  69.5000        204
  69.6000        169
  69.7000        203
  69.8000        178
  69.9000        203
  70.0000        210
  70.1000        171
  70.2000        197
  70.3000        192
  70.4000        196
  70.5000        179
  70.6000        191
  70.7000        200
  70.8000        235
  70.9000        195
  71.0000        212
  71.1000        212
  71.2000        188
  71.3000        182
  71.4000        195
  71.5000        203
  71.6000        223
  71.7000        189
  71.8000        212
  71.9000        196
  72.0000        194
  72.1000        199
  72.2000        212
  72.3000        186
  72.4000        216
  72.5000        221
  72.6000        187
  72.7000        197
  72.8000        214
  72.9000        220
  73.0000        191
  73.1000        198
  73.2000        189
  73.3000        209
  73.4000        217
  73.5000        246
  73.6000        181
  73.7000        195
  73.8000        212
  73.9000        221
  74.0000        199
  74.1000        198
  74.2000        200
  74.3000        193
  74.4000        193
  74.5000        221
  74.6000        229
  74.7000        196
  74.8000        216
  74.9000        220
  75.0000        236
  75.1000        215
  75.2000        234
  75.3000        222
  75.4000        229
  75.5000        228
  75.6000        220
  75.7000        239
  75.8000        231
  75.9000        219
  76.0000        242
  76.1000        273
  76.2000        236
  76.3000        274
  76.4000        259
  76.5000        256
  76.6000        276
  76.7000        291
  76.8000        245
  76.9000        268
  77.0000        279
  77.1000        242
  77.2000        227
  77.3000        276
  77.4000        289
  77.5000        238
  77.6000        266
  77.7000        247
  77.8000        244
  77.9000        232
  78.0000        207
  78.1000        211
  78.2000        234
  78.3000        235
  78.4000        219
  78.5000        217
  78.6000        227
  78.7000        218
  78.8000        228
  78.9000        215
  79.0000        221
  79.1000        249
  79.2000        227
  79.3000        217
  79.4000        234
  79.5000        223
  79.6000        224
  79.7000        236
  79.8000        214
  79.9000        244
  80.0000        218
  80.1000        227
  80.2000        229
  80.3000        256
  80.4000        236
  80.5000        240
  80.6000        224
  80.7000        233
  80.8000        224
  80.9000        239
  81.0000        217
  81.1000        248
  81.2000        205
  81.3000        204
  81.4000        245
  81.5000        237
  81.6000        214
  81.7000        228
  81.8000        200
  81.9000        265
  82.0000        234
  82.1000        216
  82.2000        238
  82.3000        211
  82.4000        235
  82.5000        238
  82.6000        219
  82.7000        201
  82.8000        234
  82.9000        241
  83.0000        256
  83.1000        246
  83.2000        230
  83.3000        237
  83.4000        237
  83.5000        249
  83.6000        251
  83.7000        219
  83.8000        273
  83.9000        233
  84.0000        246
  84.1000        268
  84.2000        234
  84.3000        232
  84.4000        231
  84.5000        256
  84.6000        237
  84.7000        214
  84.8000        228
  84.9000        229
  85.0000        247
  85.1000        240
  85.2000        240
  85.3000        238
  85.4000        238
  85.5000        252
  85.6000        250
  85.7000        246
  85.8000        255
  85.9000        254
  86.0000        234
  86.1000        244
  86.2000        221
  86.3000        263
  86.4000        227
  86.5000        255
  86.6000        254
  86.7000        275
  86.8000        245
  86.9000        242
  87.0000        251
  87.1000        226
  87.2000        250
  87.3000        234
  87.4000        237
  87.5000        247
  87.6000        256
  87.7000        246
  87.8000        265
  87.9000        292
  88.0000        253
  88.1000        238
  88.2000        271
  88.3000        237
  88.4000        242
  88.5000        259
  88.6000        260
  88.7000        235
  88.8000        270
  88.9000        246
  89.0000        264
  89.1000        273
  89.2000        276
  89.3000        259
  89.4000        261
  89.5000        279
  89.6000        276
  89.7000        273
  89.8000        265
  89.9000        271
  90.0000        261
  90.1000        265
  90.2000        263
  90.3000        312
  90.4000        277
  90.5000        268
  90.6000        300
  90.7000        286
  90.8000        282
  90.9000        308
  91.0000        276
  91.1000        253
  91.2000        248
  91.3000        273
  91.4000        263
  91.5000        276
  91.6000        254
  91.7000        284
  91.8000        264
  91.9000        258
  92.0000        261
  92.1000        233
  92.2000        275
  92.3000        291
  92.4000        274
  92.5000        310
  92.6000        278
  92.7000        281
  92.8000        280
  92.9000        289
  93.0000        270
  93.1000        260
  93.2000        266
  93.3000        243
  93.4000        265
  93.5000        285
  93.6000        307
  93.7000        277
  93.8000        296
  93.9000        270
  94.0000        240
  94.1000        262
  94.2000        287
  94.3000        289
  94.4000        314
  94.5000        270
  94.6000        261
  94.7000        293
  94.8000        251
  94.9000        288
  95.0000        285
  95.1000        287
  95.2000        286
  95.3000        288
  95.4000        279
  95.5000        276
  95.6000        281
  95.7000        235
  95.8000        281
  95.9000        293
  96.0000        303
  96.1000        315
  96.2000        302
  96.3000        261
  96.4000        274
  96.5000        281
  96.6000        297
  96.7000        281
  96.8000        287
  96.9000        301
  97.0000        312
  97.1000        295
  97.2000        308
  97.3000        306
  97.4000        296
  97.5000        314
  97.6000        292
  97.7000        312
  97.8000        313
  97.9000        346
  98.0000        355
  98.1000        335
  98.2000        347
  98.3000        331
  98.4000        387
  98.5000        417
  98.6000        452
  98.7000        483
  98.8000        507
  98.9000        456
  99.0000        482
  99.1000        554
  99.2000        512
  99.3000        513
  99.4000        519
  99.5000        551
  99.6000        544
  99.7000        501
  99.8000        463
  99.9000        480
 100.0000        450
 100.1000        437
 100.2000        414
 100.3000        419
 100.4000        400
 100.5000        408
 100.6000        332
 100.7000        324
 100.8000        312
 100.9000        353
 101.0000        306
 101.1000        319
 101.2000        324
 101.3000        315
 101.4000        324
 101.5000        329
 101.6000        332
 101.7000        322
 101.8000        307
 101.9000        313
 102.0000        320
 102.1000        304
 102.2000        329
 102.3000        307
 102.4000        308
 102.5000        329
 102.6000        277
 102.7000        280
 102.8000        313
 102.9000        341
 103.0000        290
 103.1000        320
 103.2000        309
 103.3000        310
 103.4000        328
 103.5000        321
 103.6000        339
 103.7000        338
 103.8000        278
 103.9000        327
 104.0000        329
 104.1000        338
 104.2000        315
 104.3000        312
 104.4000        340
 104.5000        302
 104.6000        321
 104.7000        320
 104.8000        324
 104.9000        320
 105.0000        297
 105.1000        333
 105.2000        321
 105.3000        328
 105.4000        346
 105.5000        327
 105.6000        317
 105.7000        317
 105.8000        321
 105.9000        329
 106.0000        355
 106.1000        311
 106.2000        362
 106.3000        306
 106.4000        357
 106.5000        333
 106.6000        329
 106.7000        345
 106.8000        338
 106.9000        338
 107.0000        328
 107.1000        337
 107.2000        348
 107.3000        331
 107.4000        307
 107.5000        315
 107.6000        336
 107.7000        334
 107.8000        325
 107.9000        312
 108.0000        338
 108.1000        371
 108.2000        351
 108.3000        310
 108.4000        338
 108.5000        323
 108.6000        337
 108.7000        386
 108.8000        355
 108.9000        305
 109.0000        340
 109.1000        343
 109.2000        320
 109.3000        343
 109.4000        298
 109.5000        317
 109.6000        378
 109.7000        368
 109.8000        355
 109.9000        371
 110.0000        342
 110.1000        333
 110.2000        351
 110.3000        324
 110.4000        302
 110.5000        322
 110.6000        355
 110.7000        351
 110.8000        341
 110.9000        339
 111.0000        364
 111.1000        362
 111.2000        335
 111.3000        333
 111.4000        321
 111.5000        342
 111.6000        342
 111.7000        367
 111.8000        342
 111.9000        332
 112.0000        336
 112.1000        344
 112.2000        325
 112.3000        411
 112.4000        331
 112.5000        342
 112.6000        384
 112.7000        301
 112.8000        332
 112.9000        351
 113.0000        343
 113.1000        366
 113.2000        348
 113.3000        333
 113.4000        350
 113.5000        345
 113.6000        388
 113.7000        356
 113.8000        350
 113.9000        354
 114.0000        344
 114.1000        349
 114.2000        369
 114.3000        398
 114.4000        352
 114.5000        357
 114.6000        374
 114.7000        377
 114.8000        334
 114.9000        348
 115.0000        360
 115.1000        343
 115.2000        372
 115.3000        345
 115.4000        395
 115.5000        351
 115.6000        354
 115.7000        361
 115.8000        379
 115.9000        378
 116.0000        395
 116.1000        370
 116.2000        340
 116.3000        339
 116.4000        327
 116.5000        361
 116.6000        351
 116.7000        363
 116.8000        348
 116.9000        382
 117.0000        338
 117.1000        359
 117.2000        357
 117.3000        327
 117.4000        362
 117.5000        378
 117.6000        365
 117.7000        381
 117.8000        401
 117.9000        363
 118.0000        369
 118.1000        387
 118.2000        368
 118.3000        352
 118.4000        363
 118.5000        365
 118.6000        339
 118.7000        386
 118.8000        369
 118.9000        393
 119.0000        429
 119.1000        381
 119.2000        387
 119.3000        351
 119.4000        382
 119.5000        368
 119.6000        372
 119.7000        391
 119.8000        362
 119.9000        395
 120.0000        388
 120.1000        366
 120.2000        366
 120.3000        384
 120.4000        370
 120.5000        370
 120.6000        393
 120.7000        398
 120.8000        393
 120.9000        425
 121.0000        372
 121.1000        399
 121.2000        420
 121.3000        381
 121.4000        399
 121.5000        392
 121.6000        381
 121.7000        409
 121.8000        402
 121.9000        402
 122.0000        382
 122.1000        445
 122.2000        416
 122.3000        424
 122.4000        474
 122.5000        438
 122.6000        452
 122.7000        449
 122.8000        499
 122.9000        452
 123.0000        520
 123.1000        512
 123.2000        523
 123.3000        499
 123.4000        469
 123.5000        510
 123.6000        502
 123.7000        485
 123.8000        494
 123.9000        513
 124.0000        470
 124.1000        515
 124.2000        468
 124.3000        454
 124.4000        426
 124.5000        428
 124.6000        434
 124.7000        413
 124.8000        446
 124.9000        382
 125.0000        417
 125.1000        391
 125.2000        434
 125.3000        428
 125.4000        420
 125.5000        387
 125.6000        427
 125.7000        417
 125.8000        387
 125.9000        392
 126.0000        413
 126.1000        388
 126.2000        427
 126.3000        409
 126.4000        399
 126.5000        404
 126.6000        392
 126.7000        378
 126.8000        428
 126.9000        384
 127.0000        397
 127.1000        389
 127.2000        421
 127.3000        412
 127.4000        383
 127.5000        388
 127.6000        372
 127.7000        406
 127.8000        403
 127.9000        365
 128.0000        403
 128.1000        439
 128.2000        366
 128.3000        413
 128.4000        422
 128.5000        388
 128.6000        408
 128.7000        403
 128.8000        434
 128.9000        446
 129.0000        393
 129.1000        396
 129.2000        425
 129.3000        403
 129.4000        403
 129.5000        410
 129.6000        412
 129.7000        416
 129.8000        434
 129.9000        395
 130.0000        394