File: exp_dat/old/exp_2013_11_06/00pct_180L.uxd
; (content of file C:\DIFFDAT1\GIFT\MDL\Seawoong Lee\20131104_MV8\equal_area_maxkhi080_n8_2th40_130_x-25y-25_180L.raw)
_FILEVERSION = 3
_SAMPLE =
_+SAMPLE =
_SITE = Korea
_USER = Admin
_GONIOMETER_CODE = 20
; Goniometer : D8 theta/2theta, stage : Unknown
_SAMPLE_CHANGER_CODE = 0
_ATTACHMENTS_CODE = 0
_GONIOMETER_RADIUS = 300
_FIXED_DIVSLIT = 1
_FIXED_SAMPLESLIT = 0
_SOLLER_SLITS = 2
_FIXED_DETSLIT = 0.1
_MONOCHROMATOR = 0
; Incident beam monochromator : None
_SOLLER_SLITS_2 = 2
_THIN_FILM = N
_BETA_FILTER = Y
_FIXED_ANTISLIT = 0.6
_ANALYZER_CODE = 0
; Received beam analyzer : None
_DATEMEASURED = "06-Nov-2013 06:37:09"
_WL_UNIT = A
_WL1 = 1.78897
_WL2 = 1.79285
_WL3 = 1.62079
_WLRATIO = 0.5
_ANODE = Co
_V4_INF_CREATOR = XRDWizard
_V4_INF_CREATOR_VERSION = V2.9.0.22
_V4_INF_WIZARD_VERSION = V2.9.0.22
_V4_INF_WIZARD_ADDINS = V2.9.0.22
_V4_INF_WIZARD_DOCTYPE = XRD
_V4_INF_OSUSER = Postech
_V4_INF_USER = Admin
_V4_INF_SITE = Korea

; Data for range 1
_DRIVE = COUPLED
_STEPTIME = 0.2
_STEPSIZE = 0.1
_STEPMODE = C
_START = 40
_THETA = 20
_2THETA = 40
_KHI = 0
_PHI = 0
_X = -25
_Y = -25
_Z = 0
_DETECTOR = 1
; Detector type : Scintillation counter
_HV = 687
_GAIN = 80
_LLD = 0.69
_ULD = 1.866
_DETECTORSLIT = unkn
_AUX1 = 0
_AUX2 = 0
_AUX3 = 0
_TIMESTARTED = 28
_TEMP_RATE = -1
_TEMP_DELAY = -1
_KV = 35
_MA = 40
_RANGE_WL = 1.78897
_3DPLANE = 0
_V4_ADDITIONALDETECTOR = 0
_V4_D8_DIBNUM = 1
_V4_DETECTORNAME = "Detector 1"
_V4_TTLDETECTOR = None
_V4_DETECTORTYPE = 1
_V4_DETECTORFLAGS = 524545
_V4_DETECTORHV = 687
_V4_DETECTORGAIN = 80
_V4_DETECTORLLD1 = 0.69
_V4_DETECTORWW1 = 1.176
_V4_DETECTORLLD2 = 0
_V4_DETECTORWW2 = 0
_V4_DETECTORPS = 0
_V4_DETECTORDT = 0
_V4_DETECTORPILEUPTIME = 0
_V4_COUNTERS_MASK = 1
_V4_DRIVES_MASK = 0
_V4_ENCODERS_MASK = 0
_2THETACOUNTS = 1
; 2THETA  Cnt1_D1
  40.0000        516
  40.1000        548
  40.2000        497
  40.3000        565
  40.4000        551
  40.5000        557
  40.6000        533
  40.7000        528
  40.8000        494
  40.9000        551
  41.0000        563
  41.1000        551
  41.2000        542
  41.3000        545
  41.4000        518
  41.5000        546
  41.6000        525
  41.7000        478
  41.8000        581
  41.9000        487
  42.0000        521
  42.1000        518
  42.2000        512
  42.3000        539
  42.4000        528
  42.5000        519
  42.6000        509
  42.7000        528
  42.8000        517
  42.9000        544
  43.0000        540
  43.1000        497
  43.2000        538
  43.3000        541
  43.4000        543
  43.5000        536
  43.6000        504
  43.7000        517
  43.8000        533
  43.9000        528
  44.0000        508
  44.1000        580
  44.2000        532
  44.3000        527
  44.4000        480
  44.5000        543
  44.6000        496
  44.7000        558
  44.8000        541
  44.9000        534
  45.0000        480
  45.1000        509
  45.2000        489
  45.3000        552
  45.4000        576
  45.5000        522
  45.6000        538
  45.7000        547
  45.8000        471
  45.9000        551
  46.0000        522
  46.1000        536
  46.2000        521
  46.3000        492
  46.4000        526
  46.5000        528
  46.6000        547
  46.7000        537
  46.8000        527
  46.9000        528
  47.0000        541
  47.1000        547
  47.2000        539
  47.3000        525
  47.4000        529
  47.5000        505
  47.6000        507
  47.7000        496
  47.8000        532
  47.9000        499
  48.0000        528
  48.1000        520
  48.2000        540
  48.3000        546
  48.4000        520
  48.5000        508
  48.6000        543
  48.7000        492
  48.8000        574
  48.9000        547
  49.0000        566
  49.1000        502
  49.2000        524
  49.3000        484
  49.4000        538
  49.5000        533
  49.6000        510
  49.7000        538
  49.8000        506
  49.9000        548
  50.0000        536
  50.1000        528
  50.2000        559
  50.3000        563
  50.4000        572
  50.5000        582
  50.6000        565
  50.7000        571
  50.8000        656
  50.9000        599
  51.0000        640
  51.1000        575
  51.2000        621
  51.3000        551
  51.4000        579
  51.5000        609
  51.6000        725
  51.7000        967
  51.8000       1150
  51.9000       1298
  52.0000       1362
  52.1000       1371
  52.2000       1406
  52.3000       1451
  52.4000       1347
  52.5000       1319
  52.6000       1094
  52.7000        841
  52.8000        618
  52.9000        588
  53.0000        548
  53.1000        553
  53.2000        503
  53.3000        550
  53.4000        543
  53.5000        542
  53.6000        537
  53.7000        469
  53.8000        564
  53.9000        528
  54.0000        492
  54.1000        535
  54.2000        555
  54.3000        493
  54.4000        537
  54.5000        520
  54.6000        536
  54.7000        511
  54.8000        522
  54.9000        509
  55.0000        524
  55.1000        550
  55.2000        557
  55.3000        503
  55.4000        510
  55.5000        466
  55.6000        534
  55.7000        495
  55.8000        503
  55.9000        545
  56.0000        495
  56.1000        554
  56.2000        508
  56.3000        573
  56.4000        503
  56.5000        499
  56.6000        506
  56.7000        519
  56.8000        543
  56.9000        538
  57.0000        477
  57.1000        525
  57.2000        519
  57.3000        520
  57.4000        520
  57.5000        544
  57.6000        538
  57.7000        511
  57.8000        544
  57.9000        487
  58.0000        571
  58.1000        466
  58.2000        547
  58.3000        514
  58.4000        506
  58.5000        541
  58.6000        508
  58.7000        518
  58.8000        537
  58.9000        504
  59.0000        542
  59.1000        554
  59.2000        559
  59.3000        575
  59.4000        572
  59.5000        567
  59.6000        563
  59.7000        589
  59.8000        539
  59.9000        526
  60.0000        548
  60.1000        588
  60.2000        512
  60.3000        531
  60.4000        531
  60.5000        469
  60.6000        514
  60.7000        491
  60.8000        521
  60.9000        476
  61.0000        506
  61.1000        522
  61.2000        523
  61.3000        534
  61.4000        514
  61.5000        544
  61.6000        536
  61.7000        482
  61.8000        511
  61.9000        541
  62.0000        532
  62.1000        490
  62.2000        551
  62.3000        525
  62.4000        508
  62.5000        522
  62.6000        471
  62.7000        520
  62.8000        519
  62.9000        546
  63.0000        544
  63.1000        530
  63.2000        511
  63.3000        534
  63.4000        489
  63.5000        479
  63.6000        506
  63.7000        487
  63.8000        529
  63.9000        503
  64.0000        506
  64.1000        501
  64.2000        497
  64.3000        500
  64.4000        531
  64.5000        517
  64.6000        524
  64.7000        473
  64.8000        512
  64.9000        518
  65.0000        493
  65.1000        517
  65.2000        534
  65.3000        518
  65.4000        510
  65.5000        530
  65.6000        522
  65.7000        491
  65.8000        514
  65.9000        558
  66.0000        525
  66.1000        510
  66.2000        545
  66.3000        510
  66.4000        532
  66.5000        502
  66.6000        542
  66.7000        528
  66.8000        510
  66.9000        504
  67.0000        480
  67.1000        516
  67.2000        485
  67.3000        488
  67.4000        529
  67.5000        526
  67.6000        517
  67.7000        519
  67.8000        533
  67.9000        506
  68.0000        511
  68.1000        471
  68.2000        504
  68.3000        518
  68.4000        524
  68.5000        505
  68.6000        518
  68.7000        537
  68.8000        470
  68.9000        471
  69.0000        528
  69.1000        549
  69.2000        522
  69.3000        488
  69.4000        545
  69.5000        500
  69.6000        468
  69.7000        527
  69.8000        503
  69.9000        534
  70.0000        515
  70.1000        500
  70.2000        509
  70.3000        530
  70.4000        532
  70.5000        519
  70.6000        509
  70.7000        552
  70.8000        526
  70.9000        540
  71.0000        518
  71.1000        520
  71.2000        497
  71.3000        521
  71.4000        526
  71.5000        504
  71.6000        488
  71.7000        501
  71.8000        486
  71.9000        506
  72.0000        573
  72.1000        527
  72.2000        500
  72.3000        514
  72.4000        496
  72.5000        478
  72.6000        484
  72.7000        533
  72.8000        511
  72.9000        504
  73.0000        518
  73.1000        495
  73.2000        487
  73.3000        511
  73.4000        554
  73.5000        509
  73.6000        530
  73.7000        516
  73.8000        518
  73.9000        527
  74.0000        532
  74.1000        503
  74.2000        530
  74.3000        491
  74.4000        531
  74.5000        516
  74.6000        539
  74.7000        504
  74.8000        525
  74.9000        504
  75.0000        495
  75.1000        557
  75.2000        520
  75.3000        568
  75.4000        490
  75.5000        483
  75.6000        506
  75.7000        529
  75.8000        531
  75.9000        519
  76.0000        531
  76.1000        540
  76.2000        593
  76.3000        662
  76.4000        725
  76.5000        812
  76.6000        913
  76.7000        956
  76.8000        993
  76.9000       1086
  77.0000       1043
  77.1000        987
  77.2000        980
  77.3000        933
  77.4000        800
  77.5000        686
  77.6000        586
  77.7000        553
  77.8000        536
  77.9000        528
  78.0000        520
  78.1000        546
  78.2000        538
  78.3000        542
  78.4000        549
  78.5000        511
  78.6000        528
  78.7000        477
  78.8000        516
  78.9000        540
  79.0000        513
  79.1000        501
  79.2000        525
  79.3000        536
  79.4000        502
  79.5000        509
  79.6000        493
  79.7000        512
  79.8000        493
  79.9000        500
  80.0000        508
  80.1000        483
  80.2000        484
  80.3000        546
  80.4000        531
  80.5000        475
  80.6000        507
  80.7000        491
  80.8000        535
  80.9000        501
  81.0000        491
  81.1000        528
  81.2000        490
  81.3000        526
  81.4000        469
  81.5000        501
  81.6000        485
  81.7000        537
  81.8000        528
  81.9000        491
  82.0000        495
  82.1000        461
  82.2000        546
  82.3000        511
  82.4000        516
  82.5000        456
  82.6000        529
  82.7000        490
  82.8000        519
  82.9000        501
  83.0000        533
  83.1000        522
  83.2000        498
  83.3000        497
  83.4000        487
  83.5000        513
  83.6000        558
  83.7000        512
  83.8000        510
  83.9000        526
  84.0000        514
  84.1000        502
  84.2000        473
  84.3000        494
  84.4000        527
  84.5000        535
  84.6000        506
  84.7000        519
  84.8000        562
  84.9000        465
  85.0000        548
  85.1000        490
  85.2000        483
  85.3000        503
  85.4000        515
  85.5000        492
  85.6000        519
  85.7000        512
  85.8000        512
  85.9000        524
  86.0000        513
  86.1000        518
  86.2000        537
  86.3000        506
  86.4000        482
  86.5000        520
  86.6000        509
  86.7000        508
  86.8000        568
  86.9000        527
  87.0000        515
  87.1000        501
  87.2000        508
  87.3000        504
  87.4000        495
  87.5000        524
  87.6000        497
  87.7000        505
  87.8000        538
  87.9000        492
  88.0000        581
  88.1000        520
  88.2000        543
  88.3000        532
  88.4000        536
  88.5000        550
  88.6000        554
  88.7000        562
  88.8000        600
  88.9000        639
  89.0000        627
  89.1000        645
  89.2000        633
  89.3000        682
  89.4000        706
  89.5000        667
  89.6000        628
  89.7000        601
  89.8000        568
  89.9000        534
  90.0000        591
  90.1000        531
  90.2000        472
  90.3000        507
  90.4000        550
  90.5000        503
  90.6000        482
  90.7000        452
  90.8000        529
  90.9000        512
  91.0000        530
  91.1000        522
  91.2000        482
  91.3000        475
  91.4000        505
  91.5000        512
  91.6000        511
  91.7000        529
  91.8000        518
  91.9000        470
  92.0000        519
  92.1000        488
  92.2000        483
  92.3000        544
  92.4000        547
  92.5000        504
  92.6000        454
  92.7000        501
  92.8000        512
  92.9000        546
  93.0000        466
  93.1000        487
  93.2000        506
  93.3000        528
  93.4000        524
  93.5000        504
  93.6000        506
  93.7000        505
  93.8000        502
  93.9000        513
  94.0000        520
  94.1000        520
  94.2000        452
  94.3000        522
  94.4000        511
  94.5000        552
  94.6000        514
  94.7000        559
  94.8000        511
  94.9000        515
  95.0000        508
  95.1000        503
  95.2000        501
  95.3000        472
  95.4000        482
  95.5000        477
  95.6000        519
  95.7000        473
  95.8000        522
  95.9000        504
  96.0000        514
  96.1000        503
  96.2000        571
  96.3000        487
  96.4000        503
  96.5000        480
  96.6000        514
  96.7000        522
  96.8000        470
  96.9000        546
  97.0000        503
  97.1000        502
  97.2000        527
  97.3000        508
  97.4000        518
  97.5000        522
  97.6000        537
  97.7000        491
  97.8000        519
  97.9000        526
  98.0000        512
  98.1000        511
  98.2000        510
  98.3000        509
  98.4000        512
  98.5000        552
  98.6000        636
  98.7000        701
  98.8000        790
  98.9000       1006
  99.0000       1079
  99.1000       1301
  99.2000       1333
  99.3000       1357
  99.4000       1336
  99.5000       1277
  99.6000       1155
  99.7000       1045
  99.8000        919
  99.9000        820
 100.0000        737
 100.1000        663
 100.2000        613
 100.3000        508
 100.4000        541
 100.5000        505
 100.6000        494
 100.7000        517
 100.8000        521
 100.9000        547
 101.0000        542
 101.1000        514
 101.2000        507
 101.3000        516
 101.4000        486
 101.5000        538
 101.6000        515
 101.7000        550
 101.8000        489
 101.9000        552
 102.0000        539
 102.1000        522
 102.2000        553
 102.3000        531
 102.4000        539
 102.5000        485
 102.6000        541
 102.7000        532
 102.8000        535
 102.9000        533
 103.0000        509
 103.1000        527
 103.2000        531
 103.3000        514
 103.4000        492
 103.5000        484
 103.6000        524
 103.7000        469
 103.8000        495
 103.9000        491
 104.0000        479
 104.1000        506
 104.2000        473
 104.3000        507
 104.4000        535
 104.5000        539
 104.6000        526
 104.7000        536
 104.8000        543
 104.9000        486
 105.0000        474
 105.1000        509
 105.2000        496
 105.3000        500
 105.4000        555
 105.5000        494
 105.6000        532
 105.7000        537
 105.8000        466
 105.9000        527
 106.0000        494
 106.1000        479
 106.2000        522
 106.3000        529
 106.4000        514
 106.5000        527
 106.6000        516
 106.7000        539
 106.8000        485
 106.9000        492
 107.0000        487
 107.1000        482
 107.2000        544
 107.3000        543
 107.4000        521
 107.5000        487
 107.6000        469
 107.7000        488
 107.8000        524
 107.9000        546
 108.0000        493
 108.1000        484
 108.2000        525
 108.3000        490
 108.4000        512
 108.5000        484
 108.6000        543
 108.7000        555
 108.8000        511
 108.9000        494
 109.0000        530
 109.1000        514
 109.2000        505
 109.3000        524
 109.4000        536
 109.5000        524
 109.6000        518
 109.7000        558
 109.8000        494
 109.9000        518
 110.0000        477
 110.1000        508
 110.2000        536
 110.3000        560
 110.4000        596
 110.5000        533
 110.6000        578
 110.7000        560
 110.8000        627
 110.9000        587
 111.0000        609
 111.1000        544
 111.2000        578
 111.3000        559
 111.4000        526
 111.5000        545
 111.6000        522
 111.7000        528
 111.8000        511
 111.9000        553
 112.0000        489
 112.1000        524
 112.2000        481
 112.3000        548
 112.4000        520
 112.5000        495
 112.6000        540
 112.7000        473
 112.8000        559
 112.9000        542
 113.0000        531
 113.1000        501
 113.2000        513
 113.3000        522
 113.4000        471
 113.5000        522
 113.6000        493
 113.7000        540
 113.8000        498
 113.9000        528
 114.0000        543
 114.1000        538
 114.2000        547
 114.3000        510
 114.4000        499
 114.5000        437
 114.6000        509
 114.7000        506
 114.8000        529
 114.9000        512
 115.0000        504
 115.1000        518
 115.2000        511
 115.3000        539
 115.4000        550
 115.5000        517
 115.6000        474
 115.7000        523
 115.8000        525
 115.9000        502
 116.0000        529
 116.1000        518
 116.2000        514
 116.3000        516
 116.4000        510
 116.5000        506
 116.6000        505
 116.7000        528
 116.8000        534
 116.9000        502
 117.0000        473
 117.1000        525
 117.2000        509
 117.3000        551
 117.4000        483
 117.5000        523
 117.6000        505
 117.7000        522
 117.8000        509
 117.9000        505
 118.0000        481
 118.1000        534
 118.2000        530
 118.3000        515
 118.4000        495
 118.5000        494
 118.6000        531
 118.7000        538
 118.8000        539
 118.9000        525
 119.0000        512
 119.1000        544
 119.2000        481
 119.3000        511
 119.4000        486
 119.5000        546
 119.6000        541
 119.7000        534
 119.8000        527
 119.9000        516
 120.0000        490
 120.1000        555
 120.2000        504
 120.3000        507
 120.4000        484
 120.5000        555
 120.6000        534
 120.7000        490
 120.8000        544
 120.9000        538
 121.0000        505
 121.1000        547
 121.2000        541
 121.3000        487
 121.4000        499
 121.5000        529
 121.6000        542
 121.7000        527
 121.8000        515
 121.9000        495
 122.0000        524
 122.1000        491
 122.2000        504
 122.3000        520
 122.4000        528
 122.5000        509
 122.6000        535
 122.7000        563
 122.8000        559
 122.9000        586
 123.0000        626
 123.1000        634
 123.2000        602
 123.3000        681
 123.4000        656
 123.5000        635
 123.6000        630
 123.7000        629
 123.8000        582
 123.9000        612
 124.0000        565
 124.1000        552
 124.2000        583
 124.3000        501
 124.4000        497
 124.5000        527
 124.6000        522
 124.7000        483
 124.8000        539
 124.9000        507
 125.0000        537
 125.1000        513
 125.2000        531
 125.3000        542
 125.4000        498
 125.5000        521
 125.6000        510
 125.7000        507
 125.8000        503
 125.9000        526
 126.0000        489
 126.1000        488
 126.2000        510
 126.3000        547
 126.4000        514
 126.5000        467
 126.6000        518
 126.7000        518
 126.8000        502
 126.9000        542
 127.0000        564
 127.1000        504
 127.2000        504
 127.3000        541
 127.4000        522
 127.5000        486
 127.6000        549
 127.7000        541
 127.8000        526
 127.9000        512
 128.0000        525
 128.1000        506
 128.2000        515
 128.3000        513
 128.4000        540
 128.5000        518
 128.6000        496
 128.7000        516
 128.8000        517
 128.9000        538
 129.0000        526
 129.1000        562
 129.2000        534
 129.3000        493
 129.4000        547
 129.5000        532
 129.6000        523
 129.7000        531
 129.8000        483
 129.9000        523
 130.0000        540

; Data for range 2
_DRIVE = COUPLED
_STEPTIME = 0.2
_STEPSIZE = 0.1
_STEPMODE = C
_START = 40
_THETA = 20
_2THETA = 40
_KHI = 10.5
_PHI = 60
_X = -25
_Y = -25
_Z = 0
_DETECTOR = 1
; Detector type : Scintillation counter
_HV = 687
_GAIN = 80
_LLD = 0.69
_ULD = 1.866
_DETECTORSLIT = unkn
_AUX1 = 0
_AUX2 = 0
_AUX3 = 0
_TIMESTARTED = 225
_TEMP_RATE = -1
_TEMP_DELAY = -1
_KV = 35
_MA = 40
_RANGE_WL = 1.78897
_3DPLANE = 0
_V4_ADDITIONALDETECTOR = 0
_V4_D8_DIBNUM = 1
_V4_DETECTORNAME = "Detector 1"
_V4_TTLDETECTOR = None
_V4_DETECTORTYPE = 1
_V4_DETECTORFLAGS = 524545
_V4_DETECTORHV = 687
_V4_DETECTORGAIN = 80
_V4_DETECTORLLD1 = 0.69
_V4_DETECTORWW1 = 1.176
_V4_DETECTORLLD2 = 0
_V4_DETECTORWW2 = 0
_V4_DETECTORPS = 0
_V4_DETECTORDT = 0
_V4_DETECTORPILEUPTIME = 0
_V4_COUNTERS_MASK = 1
_V4_DRIVES_MASK = 0
_V4_ENCODERS_MASK = 0
_2THETACOUNTS = 1
; 2THETA  Cnt1_D1
  40.0000        542
  40.1000        486
  40.2000        523
  40.3000        532
  40.4000        527
  40.5000        510
  40.6000        496
  40.7000        541
  40.8000        547
  40.9000        536
  41.0000        511
  41.1000        502
  41.2000        528
  41.3000        509
  41.4000        523
  41.5000        534
  41.6000        491
  41.7000        529
  41.8000        494
  41.9000        492
  42.0000        522
  42.1000        516
  42.2000        545
  42.3000        536
  42.4000        501
  42.5000        537
  42.6000        535
  42.7000        532
  42.8000        541
  42.9000        516
  43.0000        532
  43.1000        506
  43.2000        523
  43.3000        558
  43.4000        491
  43.5000        504
  43.6000        497
  43.7000        498
  43.8000        529
  43.9000        552
  44.0000        565
  44.1000        551
  44.2000        564
  44.3000        549
  44.4000        529
  44.5000        496
  44.6000        542
  44.7000        531
  44.8000        532
  44.9000        557
  45.0000        525
  45.1000        551
  45.2000        520
  45.3000        491
  45.4000        503
  45.5000        566
  45.6000        495
  45.7000        527
  45.8000        547
  45.9000        513
  46.0000        497
  46.1000        505
  46.2000        542
  46.3000        539
  46.4000        538
  46.5000        560
  46.6000        574
  46.7000        513
  46.8000        541
  46.9000        560
  47.0000        562
  47.1000        519
  47.2000        478
  47.3000        568
  47.4000        513
  47.5000        517
  47.6000        521
  47.7000        545
  47.8000        537
  47.9000        529
  48.0000        549
  48.1000        530
  48.2000        571
  48.3000        495
  48.4000        496
  48.5000        505
  48.6000        511
  48.7000        453
  48.8000        515
  48.9000        566
  49.0000        498
  49.1000        497
  49.2000        497
  49.3000        544
  49.4000        496
  49.5000        521
  49.6000        504
  49.7000        491
  49.8000        506
  49.9000        498
  50.0000        554
  50.1000        552
  50.2000        526
  50.3000        557
  50.4000        561
  50.5000        587
  50.6000        618
  50.7000        593
  50.8000        597
  50.9000        690
  51.0000        656
  51.1000        689
  51.2000        695
  51.3000        596
  51.4000        589
  51.5000        642
  51.6000        780
  51.7000       1002
  51.8000       1159
  51.9000       1243
  52.0000       1243
  52.1000       1276
  52.2000       1313
  52.3000       1268
  52.4000       1350
  52.5000       1198
  52.6000       1042
  52.7000        810
  52.8000        635
  52.9000        536
  53.0000        536
  53.1000        570
  53.2000        579
  53.3000        555
  53.4000        531
  53.5000        530
  53.6000        538
  53.7000        537
  53.8000        541
  53.9000        578
  54.0000        525
  54.1000        507
  54.2000        509
  54.3000        528
  54.4000        515
  54.5000        504
  54.6000        534
  54.7000        523
  54.8000        563
  54.9000        512
  55.0000        532
  55.1000        516
  55.2000        565
  55.3000        529
  55.4000        537
  55.5000        569
  55.6000        509
  55.7000        514
  55.8000        539
  55.9000        551
  56.0000        549
  56.1000        526
  56.2000        536
  56.3000        550
  56.4000        541
  56.5000        552
  56.6000        527
  56.7000        537
  56.8000        535
  56.9000        523
  57.0000        510
  57.1000        549
  57.2000        521
  57.3000        566
  57.4000        525
  57.5000        512
  57.6000        506
  57.7000        535
  57.8000        518
  57.9000        475
  58.0000        539
  58.1000        516
  58.2000        491
  58.3000        500
  58.4000        524
  58.5000        551
  58.6000        546
  58.7000        573
  58.8000        551
  58.9000        538
  59.0000        556
  59.1000        561
  59.2000        531
  59.3000        578
  59.4000        562
  59.5000        599
  59.6000        623
  59.7000        593
  59.8000        620
  59.9000        600
  60.0000        536
  60.1000        539
  60.2000        525
  60.3000        538
  60.4000        527
  60.5000        539
  60.6000        506
  60.7000        493
  60.8000        543
  60.9000        558
  61.0000        549
  61.1000        493
  61.2000        530
  61.3000        510
  61.4000        502
  61.5000        538
  61.6000        513
  61.7000        477
  61.8000        514
  61.9000        520
  62.0000        538
  62.1000        531
  62.2000        511
  62.3000        515
  62.4000        504
  62.5000        517
  62.6000        518
  62.7000        503
  62.8000        558
  62.9000        558
  63.0000        508
  63.1000        492
  63.2000        509
  63.3000        510
  63.4000        527
  63.5000        493
  63.6000        543
  63.7000        507
  63.8000        493
  63.9000        525
  64.0000        526
  64.1000        536
  64.2000        514
  64.3000        530
  64.4000        505
  64.5000        505
  64.6000        519
  64.7000        511
  64.8000        513
  64.9000        539
  65.0000        482
  65.1000        494
  65.2000        493
  65.3000        551
  65.4000        515
  65.5000        530
  65.6000        498
  65.7000        501
  65.8000        509
  65.9000        469
  66.0000        523
  66.1000        536
  66.2000        556
  66.3000        546
  66.4000        524
  66.5000        485
  66.6000        494
  66.7000        527
  66.8000        504
  66.9000        498
  67.0000        501
  67.1000        547
  67.2000        499
  67.3000        517
  67.4000        556
  67.5000        507
  67.6000        491
  67.7000        549
  67.8000        501
  67.9000        542
  68.0000        494
  68.1000        514
  68.2000        501
  68.3000        521
  68.4000        517
  68.5000        550
  68.6000        535
  68.7000        519
  68.8000        525
  68.9000        523
  69.0000        529
  69.1000        559
  69.2000        533
  69.3000        505
  69.4000        536
  69.5000        521
  69.6000        519
  69.7000        494
  69.8000        503
  69.9000        537
  70.0000        536
  70.1000        519
  70.2000        470
  70.3000        520
  70.4000        488
  70.5000        520
  70.6000        500
  70.7000        507
  70.8000        539
  70.9000        499
  71.0000        528
  71.1000        532
  71.2000        473
  71.3000        489
  71.4000        517
  71.5000        486
  71.6000        552
  71.7000        518
  71.8000        529
  71.9000        482
  72.0000        509
  72.1000        496
  72.2000        487
  72.3000        489
  72.4000        521
  72.5000        550
  72.6000        504
  72.7000        537
  72.8000        538
  72.9000        507
  73.0000        519
  73.1000        551
  73.2000        536
  73.3000        554
  73.4000        511
  73.5000        534
  73.6000        506
  73.7000        529
  73.8000        485
  73.9000        493
  74.0000        482
  74.1000        481
  74.2000        527
  74.3000        529
  74.4000        471
  74.5000        497
  74.6000        440
  74.7000        485
  74.8000        554
  74.9000        535
  75.0000        515
  75.1000        500
  75.2000        516
  75.3000        476
  75.4000        495
  75.5000        510
  75.6000        511
  75.7000        516
  75.8000        476
  75.9000        493
  76.0000        521
  76.1000        539
  76.2000        551
  76.3000        618
  76.4000        651
  76.5000        731
  76.6000        768
  76.7000        854
  76.8000        865
  76.9000        888
  77.0000        956
  77.1000        864
  77.2000        878
  77.3000        749
  77.4000        674
  77.5000        591
  77.6000        548
  77.7000        553
  77.8000        524
  77.9000        518
  78.0000        521
  78.1000        529
  78.2000        532
  78.3000        542
  78.4000        520
  78.5000        507
  78.6000        537
  78.7000        533
  78.8000        555
  78.9000        479
  79.0000        521
  79.1000        478
  79.2000        548
  79.3000        506
  79.4000        488
  79.5000        516
  79.6000        522
  79.7000        515
  79.8000        524
  79.9000        479
  80.0000        512
  80.1000        495
  80.2000        514
  80.3000        558
  80.4000        497
  80.5000        515
  80.6000        492
  80.7000        533
  80.8000        507
  80.9000        544
  81.0000        484
  81.1000        518
  81.2000        517
  81.3000        535
  81.4000        506
  81.5000        525
  81.6000        475
  81.7000        470
  81.8000        493
  81.9000        503
  82.0000        522
  82.1000        543
  82.2000        516
  82.3000        533
  82.4000        543
  82.5000        507
  82.6000        532
  82.7000        493
  82.8000        538
  82.9000        505
  83.0000        533
  83.1000        530
  83.2000        509
  83.3000        516
  83.4000        527
  83.5000        540
  83.6000        544
  83.7000        505
  83.8000        495
  83.9000        530
  84.0000        520
  84.1000        493
  84.2000        518
  84.3000        499
  84.4000        498
  84.5000        488
  84.6000        549
  84.7000        493
  84.8000        510
  84.9000        517
  85.0000        493
  85.1000        536
  85.2000        485
  85.3000        506
  85.4000        482
  85.5000        502
  85.6000        518
  85.7000        549
  85.8000        515
  85.9000        533
  86.0000        521
  86.1000        531
  86.2000        513
  86.3000        489
  86.4000        510
  86.5000        523
  86.6000        528
  86.7000        489
  86.8000        490
  86.9000        573
  87.0000        532
  87.1000        507
  87.2000        527
  87.3000        519
  87.4000        504
  87.5000        540
  87.6000        562
  87.7000        504
  87.8000        525
  87.9000        506
  88.0000        511
  88.1000        505
  88.2000        504
  88.3000        530
  88.4000        528
  88.5000        535
  88.6000        509
  88.7000        554
  88.8000        564
  88.9000        566
  89.0000        608
  89.1000        584
  89.2000        606
  89.3000        591
  89.4000        576
  89.5000        630
  89.6000        575
  89.7000        594
  89.8000        548
  89.9000        576
  90.0000        481
  90.1000        530
  90.2000        548
  90.3000        489
  90.4000        512
  90.5000        510
  90.6000        485
  90.7000        513
  90.8000        507
  90.9000        500
  91.0000        516
  91.1000        571
  91.2000        449
  91.3000        505
  91.4000        487
  91.5000        515
  91.6000        496
  91.7000        500
  91.8000        515
  91.9000        531
  92.0000        547
  92.1000        532
  92.2000        504
  92.3000        533
  92.4000        483
  92.5000        526
  92.6000        509
  92.7000        525
  92.8000        480
  92.9000        510
  93.0000        466
  93.1000        512
  93.2000        537
  93.3000        511
  93.4000        497
  93.5000        494
  93.6000        549
  93.7000        553
  93.8000        521
  93.9000        488
  94.0000        509
  94.1000        537
  94.2000        493
  94.3000        464
  94.4000        523
  94.5000        518
  94.6000        559
  94.7000        520
  94.8000        485
  94.9000        513
  95.0000        511
  95.1000        518
  95.2000        492
  95.3000        534
  95.4000        533
  95.5000        543
  95.6000        507
  95.7000        496
  95.8000        509
  95.9000        502
  96.0000        486
  96.1000        518
  96.2000        505
  96.3000        543
  96.4000        476
  96.5000        524
  96.6000        518
  96.7000        503
  96.8000        548
  96.9000        509
  97.0000        537
  97.1000        500
  97.2000        511
  97.3000        536
  97.4000        510
  97.5000        519
  97.6000        516
  97.7000        499
  97.8000        521
  97.9000        518
  98.0000        495
  98.1000        553
  98.2000        517
  98.3000        519
  98.4000        531
  98.5000        545
  98.6000        526
  98.7000        630
  98.8000        744
  98.9000        760
  99.0000        891
  99.1000        957
  99.2000        989
  99.3000       1030
  99.4000       1024
  99.5000       1021
  99.6000        958
  99.7000        855
  99.8000        788
  99.9000        711
 100.0000        699
 100.1000        588
 100.2000        604
 100.3000        533
 100.4000        559
 100.5000        547
 100.6000        517
 100.7000        517
 100.8000        528
 100.9000        503
 101.0000        559
 101.1000        521
 101.2000        492
 101.3000        543
 101.4000        543
 101.5000        501
 101.6000        501
 101.7000        487
 101.8000        544
 101.9000        547
 102.0000        517
 102.1000        551
 102.2000        545
 102.3000        507
 102.4000        485
 102.5000        534
 102.6000        498
 102.7000        502
 102.8000        522
 102.9000        479
 103.0000        537
 103.1000        538
 103.2000        489
 103.3000        540
 103.4000        521
 103.5000        496
 103.6000        485
 103.7000        546
 103.8000        504
 103.9000        505
 104.0000        519
 104.1000        502
 104.2000        519
 104.3000        448
 104.4000        464
 104.5000        525
 104.6000        496
 104.7000        526
 104.8000        523
 104.9000        497
 105.0000        498
 105.1000        485
 105.2000        545
 105.3000        497
 105.4000        523
 105.5000        477
 105.6000        518
 105.7000        506
 105.8000        514
 105.9000        531
 106.0000        504
 106.1000        520
 106.2000        498
 106.3000        507
 106.4000        476
 106.5000        517
 106.6000        472
 106.7000        553
 106.8000        511
 106.9000        524
 107.0000        486
 107.1000        538
 107.2000        490
 107.3000        512
 107.4000        519
 107.5000        496
 107.6000        528
 107.7000        526
 107.8000        497
 107.9000        520
 108.0000        506
 108.1000        531
 108.2000        510
 108.3000        515
 108.4000        507
 108.5000        540
 108.6000        497
 108.7000        542
 108.8000        499
 108.9000        472
 109.0000        549
 109.1000        515
 109.2000        504
 109.3000        533
 109.4000        500
 109.5000        507
 109.6000        540
 109.7000        518
 109.8000        504
 109.9000        523
 110.0000        543
 110.1000        540
 110.2000        521
 110.3000        516
 110.4000        516
 110.5000        529
 110.6000        551
 110.7000        588
 110.8000        572
 110.9000        612
 111.0000        586
 111.1000        587
 111.2000        547
 111.3000        579
 111.4000        550
 111.5000        589
 111.6000        542
 111.7000        550
 111.8000        535
 111.9000        510
 112.0000        492
 112.1000        556
 112.2000        501
 112.3000        497
 112.4000        535
 112.5000        574
 112.6000        498
 112.7000        513
 112.8000        496
 112.9000        461
 113.0000        544
 113.1000        504
 113.2000        508
 113.3000        490
 113.4000        558
 113.5000        519
 113.6000        480
 113.7000        529
 113.8000        508
 113.9000        545
 114.0000        497
 114.1000        517
 114.2000        522
 114.3000        555
 114.4000        519
 114.5000        531
 114.6000        523
 114.7000        491
 114.8000        542
 114.9000        483
 115.0000        504
 115.1000        498
 115.2000        515
 115.3000        502
 115.4000        506
 115.5000        526
 115.6000        504
 115.7000        559
 115.8000        499
 115.9000        506
 116.0000        549
 116.1000        531
 116.2000        521
 116.3000        489
 116.4000        504
 116.5000        525
 116.6000        516
 116.7000        493
 116.8000        504
 116.9000        518
 117.0000        510
 117.1000        508
 117.2000        511
 117.3000        543
 117.4000        504
 117.5000        470
 117.6000        518
 117.7000        470
 117.8000        489
 117.9000        519
 118.0000        497
 118.1000        527
 118.2000        503
 118.3000        544
 118.4000        529
 118.5000        521
 118.6000        547
 118.7000        526
 118.8000        535
 118.9000        541
 119.0000        511
 119.1000        574
 119.2000        522
 119.3000        522
 119.4000        566
 119.5000        566
 119.6000        540
 119.7000        515
 119.8000        512
 119.9000        477
 120.0000        490
 120.1000        521
 120.2000        514
 120.3000        528
 120.4000        516
 120.5000        517
 120.6000        540
 120.7000        526
 120.8000        558
 120.9000        504
 121.0000        494
 121.1000        519
 121.2000        506
 121.3000        490
 121.4000        514
 121.5000        480
 121.6000        464
 121.7000        564
 121.8000        481
 121.9000        500
 122.0000        509
 122.1000        518
 122.2000        506
 122.3000        503
 122.4000        504
 122.5000        530
 122.6000        493
 122.7000        548
 122.8000        577
 122.9000        585
 123.0000        582
 123.1000        567
 123.2000        560
 123.3000        628
 123.4000        599
 123.5000        640
 123.6000        647
 123.7000        593
 123.8000        586
 123.9000        581
 124.0000        559
 124.1000        534
 124.2000        504
 124.3000        501
 124.4000        502
 124.5000        512
 124.6000        506
 124.7000        538
 124.8000        525
 124.9000        524
 125.0000        484
 125.1000        519
 125.2000        586
 125.3000        513
 125.4000        504
 125.5000        557
 125.6000        495
 125.7000        517
 125.8000        533
 125.9000        491
 126.0000        509
 126.1000        504
 126.2000        503
 126.3000        496
 126.4000        549
 126.5000        530
 126.6000        521
 126.7000        531
 126.8000        512
 126.9000        545
 127.0000        496
 127.1000        522
 127.2000        523
 127.3000        507
 127.4000        518
 127.5000        539
[...]
 129.2000        420
 129.3000        395
 129.4000        392
 129.5000        377
 129.6000        373
 129.7000        367
 129.8000        369
 129.9000        383
 130.0000        376

; Data for range 53
_DRIVE = COUPLED
_STEPTIME = 0.2
_STEPSIZE = 0.1
_STEPMODE = C
_START = 40
_THETA = 20
_2THETA = 40
_KHI = 80
_PHI = 0
_X = -25
_Y = -25
_Z = 0
_DETECTOR = 1
; Detector type : Scintillation counter
_HV = 687
_GAIN = 80
_LLD = 0.69
_ULD = 1.866
_DETECTORSLIT = unkn
_AUX1 = 0
_AUX2 = 0
_AUX3 = 0
_TIMESTARTED = 1.03e+004
_TEMP_RATE = -1
_TEMP_DELAY = -1
_KV = 35
_MA = 40
_RANGE_WL = 1.78897
_3DPLANE = 0
_V4_ADDITIONALDETECTOR = 0
_V4_D8_DIBNUM = 1
_V4_DETECTORNAME = "Detector 1"
_V4_TTLDETECTOR = None
_V4_DETECTORTYPE = 1
_V4_DETECTORFLAGS = 524545
_V4_DETECTORHV = 687
_V4_DETECTORGAIN = 80
_V4_DETECTORLLD1 = 0.69
_V4_DETECTORWW1 = 1.176
_V4_DETECTORLLD2 = 0
_V4_DETECTORWW2 = 0
_V4_DETECTORPS = 0
_V4_DETECTORDT = 0
_V4_DETECTORPILEUPTIME = 0
_V4_COUNTERS_MASK = 1
_V4_DRIVES_MASK = 0
_V4_ENCODERS_MASK = 0
_2THETACOUNTS = 1
; 2THETA  Cnt1_D1
  40.0000        161
  40.1000        132
  40.2000        141
  40.3000        152
  40.4000        169
  40.5000        166
  40.6000        161
  40.7000        149
  40.8000        136
  40.9000        174
  41.0000        172
  41.1000        162
  41.2000        172
  41.3000        138
  41.4000        176
  41.5000        172
  41.6000        173
  41.7000        192
  41.8000        159
  41.9000        174
  42.0000        161
  42.1000        167
  42.2000        167
  42.3000        174
  42.4000        167
  42.5000        184
  42.6000        172
  42.7000        170
  42.8000        178
  42.9000        156
  43.0000        191
  43.1000        225
  43.2000        205
  43.3000        227
  43.4000        220
  43.5000        240
  43.6000        214
  43.7000        228
  43.8000        230
  43.9000        219
  44.0000        247
  44.1000        195
  44.2000        157
  44.3000        196
  44.4000        165
  44.5000        133
  44.6000        173
  44.7000        164
  44.8000        178
  44.9000        162
  45.0000        183
  45.1000        168
  45.2000        190
  45.3000        175
  45.4000        160
  45.5000        163
  45.6000        160
  45.7000        164
  45.8000        196
  45.9000        189
  46.0000        187
  46.1000        190
  46.2000        167
  46.3000        135
  46.4000        163
  46.5000        180
  46.6000        186
  46.7000        169
  46.8000        202
  46.9000        179
  47.0000        175
  47.1000        172
  47.2000        166
  47.3000        191
  47.4000        194
  47.5000        174
  47.6000        188
  47.7000        184
  47.8000        191
  47.9000        172
  48.0000        156
  48.1000        176
  48.2000        161
  48.3000        190
  48.4000        203
  48.5000        196
  48.6000        171
  48.7000        161
  48.8000        160
  48.9000        188
  49.0000        183
  49.1000        174
  49.2000        178
  49.3000        197
  49.4000        196
  49.5000        177
  49.6000        176
  49.7000        226
  49.8000        197
  49.9000        180
  50.0000        212
  50.1000        210
  50.2000        242
  50.3000        277
  50.4000        251
  50.5000        270
  50.6000        301
  50.7000        315
  50.8000        332
  50.9000        354
  51.0000        329
  51.1000        329
  51.2000        321
  51.3000        409
  51.4000        443
  51.5000        458
  51.6000        546
  51.7000        628
  51.8000        721
  51.9000        728
  52.0000        772
  52.1000        792
  52.2000        815
  52.3000        838
  52.4000        829
  52.5000        838
  52.6000        803
  52.7000        694
  52.8000        634
  52.9000        587
  53.0000        508
  53.1000        416
  53.2000        377
  53.3000        319
  53.4000        232
  53.5000        242
  53.6000        230
  53.7000        243
  53.8000        231
  53.9000        220
  54.0000        198
  54.1000        233
  54.2000        216
  54.3000        209
  54.4000        216
  54.5000        205
  54.6000        208
  54.7000        198
  54.8000        227
  54.9000        196
  55.0000        203
  55.1000        219
  55.2000        206
  55.3000        217
  55.4000        204
  55.5000        237
  55.6000        191
  55.7000        186
  55.8000        217
  55.9000        207
  56.0000        204
  56.1000        189
  56.2000        227
  56.3000        229
  56.4000        245
  56.5000        228
  56.6000        235
  56.7000        246
  56.8000        204
  56.9000        229
  57.0000        221
  57.1000        197
  57.2000        215
  57.3000        195
  57.4000        190
  57.5000        210
  57.6000        221
  57.7000        181
  57.8000        194
  57.9000        212
  58.0000        244
  58.1000        230
  58.2000        234
  58.3000        233
  58.4000        209
  58.5000        225
  58.6000        207
  58.7000        188
  58.8000        250
  58.9000        242
  59.0000        208
  59.1000        213
  59.2000        216
  59.3000        221
  59.4000        232
  59.5000        229
  59.6000        249
  59.7000        229
  59.8000        220
  59.9000        223
  60.0000        253
  60.1000        265
  60.2000        219
  60.3000        231
  60.4000        226
  60.5000        240
  60.6000        217
  60.7000        241
  60.8000        241
  60.9000        221
  61.0000        236
  61.1000        238
  61.2000        244
  61.3000        185
  61.4000        202
  61.5000        231
  61.6000        205
  61.7000        260
  61.8000        228
  61.9000        196
  62.0000        235
  62.1000        265
  62.2000        225
  62.3000        247
  62.4000        244
  62.5000        250
  62.6000        223
  62.7000        231
  62.8000        234
  62.9000        225
  63.0000        253
  63.1000        232
  63.2000        229
  63.3000        237
  63.4000        214
  63.5000        247
  63.6000        198
  63.7000        242
  63.8000        233
  63.9000        206
  64.0000        222
  64.1000        228
  64.2000        235
  64.3000        229
  64.4000        239
  64.5000        224
  64.6000        230
  64.7000        251
  64.8000        221
  64.9000        228
  65.0000        231
  65.1000        251
  65.2000        240
  65.3000        235
  65.4000        212
  65.5000        238
  65.6000        250
  65.7000        239
  65.8000        231
  65.9000        245
  66.0000        217
  66.1000        253
  66.2000        254
  66.3000        239
  66.4000        221
  66.5000        216
  66.6000        247
  66.7000        240
  66.8000        214
  66.9000        241
  67.0000        251
  67.1000        233
  67.2000        257
  67.3000        236
  67.4000        263
  67.5000        233
  67.6000        266
  67.7000        263
  67.8000        239
  67.9000        245
  68.0000        246
  68.1000        233
  68.2000        254
  68.3000        250
  68.4000        244
  68.5000        235
  68.6000        260
  68.7000        264
  68.8000        264
  68.9000        242
  69.0000        254
  69.1000        248
  69.2000        224
  69.3000        255
  69.4000        237
  69.5000        240
  69.6000        240
  69.7000        242
  69.8000        241
  69.9000        270
  70.0000        251
  70.1000        275
  70.2000        269
  70.3000        257
  70.4000        276
  70.5000        239
  70.6000        263
  70.7000        242
  70.8000        232
  70.9000        265
  71.0000        239
  71.1000        263
  71.2000        250
  71.3000        264
  71.4000        212
  71.5000        232
  71.6000        278
  71.7000        264
  71.8000        257
  71.9000        267
  72.0000        235
  72.1000        253
  72.2000        253
  72.3000        247
  72.4000        268
  72.5000        259
  72.6000        268
  72.7000        248
  72.8000        240
  72.9000        269
  73.0000        239
  73.1000        294
  73.2000        232
  73.3000        276
  73.4000        266
  73.5000        263
  73.6000        279
  73.7000        266
  73.8000        280
  73.9000        279
  74.0000        254
  74.1000        277
  74.2000        261
  74.3000        279
  74.4000        278
  74.5000        280
  74.6000        265
  74.7000        258
  74.8000        292
  74.9000        267
  75.0000        286
  75.1000        283
  75.2000        272
  75.3000        245
  75.4000        285
  75.5000        252
  75.6000        296
  75.7000        287
  75.8000        287
  75.9000        288
  76.0000        277
  76.1000        274
  76.2000        325
  76.3000        320
  76.4000        259
  76.5000        306
  76.6000        332
  76.7000        306
  76.8000        285
  76.9000        311
  77.0000        329
  77.1000        307
  77.2000        336
  77.3000        308
  77.4000        304
  77.5000        320
  77.6000        336
  77.7000        306
  77.8000        315
  77.9000        349
  78.0000        272
  78.1000        293
  78.2000        297
  78.3000        316
  78.4000        283
  78.5000        271
  78.6000        282
  78.7000        279
  78.8000        288
  78.9000        280
  79.0000        277
  79.1000        257
  79.2000        283
  79.3000        277
  79.4000        301
  79.5000        273
  79.6000        293
  79.7000        265
  79.8000        306
  79.9000        275
  80.0000        267
  80.1000        276
  80.2000        281
  80.3000        304
  80.4000        280
  80.5000        280
  80.6000        294
  80.7000        276
  80.8000        272
  80.9000        277
  81.0000        266
  81.1000        285
  81.2000        275
  81.3000        318
  81.4000        338
  81.5000        305
  81.6000        296
  81.7000        278
  81.8000        325
  81.9000        293
  82.0000        308
  82.1000        292
  82.2000        324
  82.3000        281
  82.4000        283
  82.5000        302
  82.6000        276
  82.7000        318
  82.8000        279
  82.9000        281
  83.0000        257
  83.1000        288
  83.2000        297
  83.3000        295
  83.4000        304
  83.5000        274
  83.6000        291
  83.7000        272
  83.8000        288
  83.9000        285
  84.0000        282
  84.1000        302
  84.2000        262
  84.3000        257
  84.4000        289
  84.5000        305
  84.6000        282
  84.7000        293
  84.8000        331
  84.9000        287
  85.0000        294
  85.1000        291
  85.2000        324
  85.3000        312
  85.4000        321
  85.5000        268
  85.6000        302
  85.7000        326
  85.8000        283
  85.9000        282
  86.0000        312
  86.1000        291
  86.2000        307
  86.3000        292
  86.4000        326
  86.5000        301
  86.6000        317
  86.7000        292
  86.8000        327
  86.9000        294
  87.0000        303
  87.1000        298
  87.2000        297
  87.3000        292
  87.4000        351
  87.5000        296
  87.6000        335
  87.7000        310
  87.8000        279
  87.9000        307
  88.0000        318
  88.1000        336
  88.2000        350
  88.3000        317
  88.4000        320
  88.5000        324
  88.6000        334
  88.7000        332
  88.8000        288
  88.9000        334
  89.0000        355
  89.1000        334
  89.2000        366
  89.3000        338
  89.4000        357
  89.5000        318
  89.6000        324
  89.7000        323
  89.8000        342
  89.9000        357
  90.0000        314
  90.1000        352
  90.2000        329
  90.3000        339
  90.4000        295
  90.5000        361
  90.6000        306
  90.7000        305
  90.8000        328
  90.9000        336
  91.0000        331
  91.1000        313
  91.2000        319
  91.3000        325
  91.4000        318
  91.5000        313
  91.6000        338
  91.7000        318
  91.8000        322
  91.9000        287
  92.0000        323
  92.1000        314
  92.2000        340
  92.3000        313
  92.4000        299
  92.5000        303
  92.6000        332
  92.7000        319
  92.8000        310
  92.9000        326
  93.0000        315
  93.1000        340
  93.2000        343
  93.3000        303
  93.4000        342
  93.5000        345
  93.6000        314
  93.7000        326
  93.8000        326
  93.9000        312
  94.0000        334
  94.1000        299
  94.2000        338
  94.3000        339
  94.4000        279
  94.5000        297
  94.6000        328
  94.7000        300
  94.8000        332
  94.9000        332
  95.0000        322
  95.1000        343
  95.2000        326
  95.3000        331
  95.4000        340
  95.5000        308
  95.6000        317
  95.7000        351
  95.8000        329
  95.9000        330
  96.0000        316
  96.1000        323
  96.2000        329
  96.3000        315
  96.4000        341
  96.5000        328
  96.6000        325
  96.7000        298
  96.8000        344
  96.9000        391
  97.0000        338
  97.1000        327
  97.2000        333
  97.3000        326
  97.4000        341
  97.5000        308
  97.6000        340
  97.7000        324
  97.8000        359
  97.9000        320
  98.0000        333
  98.1000        352
  98.2000        383
  98.3000        347
  98.4000        406
  98.5000        402
  98.6000        442
  98.7000        416
  98.8000        455
  98.9000        505
  99.0000        508
  99.1000        533
  99.2000        545
  99.3000        542
  99.4000        576
  99.5000        498
  99.6000        502
  99.7000        500
  99.8000        498
  99.9000        498
 100.0000        531
 100.1000        535
 100.2000        512
 100.3000        510
 100.4000        477
 100.5000        448
 100.6000        441
 100.7000        392
 100.8000        355
 100.9000        347
 101.0000        359
 101.1000        398
 101.2000        386
 101.3000        350
 101.4000        319
 101.5000        333
 101.6000        376
 101.7000        361
 101.8000        336
 101.9000        383
 102.0000        326
 102.1000        349
 102.2000        317
 102.3000        303
 102.4000        343
 102.5000        338
 102.6000        365
 102.7000        363
 102.8000        366
 102.9000        317
 103.0000        345
 103.1000        371
 103.2000        329
 103.3000        341
 103.4000        331
 103.5000        341
 103.6000        343
 103.7000        369
 103.8000        324
 103.9000        344
 104.0000        354
 104.1000        316
 104.2000        343
 104.3000        349
 104.4000        358
 104.5000        358
 104.6000        349
 104.7000        348
 104.8000        312
 104.9000        360
 105.0000        356
 105.1000        356
 105.2000        359
 105.3000        349
 105.4000        323
 105.5000        325
 105.6000        343
 105.7000        379
 105.8000        355
 105.9000        363
 106.0000        320
 106.1000        376
 106.2000        373
 106.3000        387
 106.4000        346
 106.5000        342
 106.6000        335
 106.7000        353
 106.8000        323
 106.9000        354
 107.0000        343
 107.1000        371
 107.2000        379
 107.3000        382
 107.4000        330
 107.5000        352
 107.6000        347
 107.7000        361
 107.8000        362
 107.9000        377
 108.0000        352
 108.1000        350
 108.2000        355
 108.3000        370
 108.4000        360
 108.5000        346
 108.6000        387
 108.7000        336
 108.8000        348
 108.9000        382
 109.0000        349
 109.1000        336
 109.2000        363
 109.3000        354
 109.4000        342
 109.5000        358
 109.6000        347
 109.7000        329
 109.8000        386
 109.9000        339
 110.0000        397
 110.1000        354
 110.2000        361
 110.3000        378
 110.4000        399
 110.5000        378
 110.6000        407
 110.7000        390
 110.8000        383
 110.9000        382
 111.0000        397
 111.1000        412
 111.2000        365
 111.3000        392
 111.4000        355
 111.5000        390
 111.6000        355
 111.7000        369
 111.8000        358
 111.9000        361
 112.0000        374
 112.1000        353
 112.2000        365
 112.3000        373
 112.4000        378
 112.5000        338
 112.6000        354
 112.7000        355
 112.8000        356
 112.9000        353
 113.0000        366
 113.1000        386
 113.2000        354
 113.3000        366
 113.4000        358
 113.5000        391
 113.6000        351
 113.7000        348
 113.8000        367
 113.9000        367
 114.0000        356
 114.1000        353
 114.2000        368
 114.3000        357
 114.4000        408
 114.5000        345
 114.6000        365
 114.7000        314
 114.8000        362
 114.9000        378
 115.0000        378
 115.1000        402
 115.2000        371
 115.3000        375
 115.4000        353
 115.5000        363
 115.6000        383
 115.7000        364
 115.8000        385
 115.9000        349
 116.0000        370
 116.1000        374
 116.2000        363
 116.3000        348
 116.4000        352
 116.5000        340
 116.6000        342
 116.7000        356
 116.8000        346
 116.9000        377
 117.0000        354
 117.1000        359
 117.2000        361
 117.3000        359
 117.4000        346
 117.5000        376
 117.6000        337
 117.7000        374
 117.8000        350
 117.9000        375
 118.0000        378
 118.1000        379
 118.2000        370
 118.3000        380
 118.4000        357
 118.5000        408
 118.6000        391
 118.7000        384
 118.8000        373
 118.9000        418
 119.0000        373
 119.1000        383
 119.2000        422
 119.3000        386
 119.4000        365
 119.5000        371
 119.6000        374
 119.7000        347
 119.8000        378
 119.9000        399
 120.0000        361
 120.1000        393
 120.2000        378
 120.3000        400
 120.4000        335
 120.5000        407
 120.6000        413
 120.7000        372
 120.8000        375
 120.9000        375
 121.0000        351
 121.1000        387
 121.2000        376
 121.3000        359
 121.4000        359
 121.5000        394
 121.6000        390
 121.7000        367
 121.8000        367
 121.9000        384
 122.0000        391
 122.1000        413
 122.2000        377
 122.3000        429
 122.4000        395
 122.5000        430
 122.6000        468
 122.7000        417
 122.8000        454
 122.9000        455
 123.0000        474
 123.1000        449
 123.2000        507
 123.3000        507
 123.4000        576
 123.5000        553
 123.6000        560
 123.7000        534
 123.8000        551
 123.9000        551
 124.0000        490
 124.1000        512
 124.2000        470
 124.3000        467
 124.4000        496
 124.5000        434
 124.6000        424
 124.7000        380
 124.8000        429
 124.9000        370
 125.0000        405
 125.1000        407
 125.2000        387
 125.3000        354
 125.4000        381
 125.5000        390
 125.6000        369
 125.7000        386
 125.8000        360
 125.9000        354
 126.0000        367
 126.1000        337
 126.2000        367
 126.3000        411
 126.4000        345
 126.5000        368
 126.6000        387
 126.7000        370
 126.8000        373
 126.9000        359
 127.0000        331
 127.1000        357
 127.2000        367
 127.3000        333
 127.4000        372
 127.5000        352
 127.6000        364
 127.7000        352
 127.8000        366
 127.9000        393
 128.0000        333
 128.1000        374
 128.2000        386
 128.3000        368
 128.4000        373
 128.5000        348
 128.6000        374
 128.7000        362
 128.8000        370
 128.9000        410
 129.0000        349
 129.1000        392
 129.2000        380
 129.3000        407
 129.4000        390
 129.5000        385
 129.6000        384
 129.7000        371
 129.8000        383
 129.9000        382
 130.0000        355