File: exp_dat/old/exp_2013_11_06/02pct_150L.uxd
; (content of file C:\DIFFDAT1\GIFT\MDL\Seawoong Lee\20131104_MV8\equal_area_maxkhi080_n8_2th40_130_x00y00_150L.raw)
_FILEVERSION = 3
_SAMPLE =
_+SAMPLE =
_SITE = Korea
_USER = Admin
_GONIOMETER_CODE = 20
; Goniometer : D8 theta/2theta, stage : Unknown
_SAMPLE_CHANGER_CODE = 0
_ATTACHMENTS_CODE = 0
_GONIOMETER_RADIUS = 300
_FIXED_DIVSLIT = 1
_FIXED_SAMPLESLIT = 0
_SOLLER_SLITS = 2
_FIXED_DETSLIT = 0.1
_MONOCHROMATOR = 0
; Incident beam monochromator : None
_SOLLER_SLITS_2 = 2
_THIN_FILM = N
_BETA_FILTER = Y
_FIXED_ANTISLIT = 0.6
_ANALYZER_CODE = 0
; Received beam analyzer : None
_DATEMEASURED = "06-Nov-2013 00:47:52"
_WL_UNIT = A
_WL1 = 1.78897
_WL2 = 1.79285
_WL3 = 1.62079
_WLRATIO = 0.5
_ANODE = Co
_V4_INF_CREATOR = XRDWizard
_V4_INF_CREATOR_VERSION = V2.9.0.22
_V4_INF_WIZARD_VERSION = V2.9.0.22
_V4_INF_WIZARD_ADDINS = V2.9.0.22
_V4_INF_WIZARD_DOCTYPE = XRD
_V4_INF_OSUSER = Postech
_V4_INF_USER = Admin
_V4_INF_SITE = Korea

; Data for range 1
_DRIVE = COUPLED
_STEPTIME = 0.2
_STEPSIZE = 0.1
_STEPMODE = C
_START = 40
_THETA = 20
_2THETA = 40
_KHI = 0
_PHI = 0
_X = 0
_Y = 0
_Z = 0
_DETECTOR = 1
; Detector type : Scintillation counter
_HV = 687
_GAIN = 80
_LLD = 0.69
_ULD = 1.866
_DETECTORSLIT = unkn
_AUX1 = 0
_AUX2 = 0
_AUX3 = 0
_TIMESTARTED = 28
_TEMP_RATE = -1
_TEMP_DELAY = -1
_KV = 35
_MA = 40
_RANGE_WL = 1.78897
_3DPLANE = 0
_V4_ADDITIONALDETECTOR = 0
_V4_D8_DIBNUM = 1
_V4_DETECTORNAME = "Detector 1"
_V4_TTLDETECTOR = None
_V4_DETECTORTYPE = 1
_V4_DETECTORFLAGS = 524545
_V4_DETECTORHV = 687
_V4_DETECTORGAIN = 80
_V4_DETECTORLLD1 = 0.69
_V4_DETECTORWW1 = 1.176
_V4_DETECTORLLD2 = 0
_V4_DETECTORWW2 = 0
_V4_DETECTORPS = 0
_V4_DETECTORDT = 0
_V4_DETECTORPILEUPTIME = 0
_V4_COUNTERS_MASK = 1
_V4_DRIVES_MASK = 0
_V4_ENCODERS_MASK = 0
_2THETACOUNTS = 1
; 2THETA  Cnt1_D1
  40.0000        447
  40.1000        522
  40.2000        461
  40.3000        530
  40.4000        484
  40.5000        480
  40.6000        507
  40.7000        501
  40.8000        508
  40.9000        466
  41.0000        522
  41.1000        538
  41.2000        501
  41.3000        502
  41.4000        478
  41.5000        451
  41.6000        517
  41.7000        518
  41.8000        485
  41.9000        507
  42.0000        479
  42.1000        501
  42.2000        491
  42.3000        543
  42.4000        505
  42.5000        475
  42.6000        516
  42.7000        519
  42.8000        464
  42.9000        481
  43.0000        511
  43.1000        489
  43.2000        523
  43.3000        520
  43.4000        533
  43.5000        545
  43.6000        517
  43.7000        495
  43.8000        549
  43.9000        513
  44.0000        537
  44.1000        489
  44.2000        497
  44.3000        496
  44.4000        503
  44.5000        505
  44.6000        498
  44.7000        538
  44.8000        471
  44.9000        537
  45.0000        532
  45.1000        533
  45.2000        475
  45.3000        521
  45.4000        488
  45.5000        494
  45.6000        515
  45.7000        467
  45.8000        573
  45.9000        547
  46.0000        497
  46.1000        494
  46.2000        509
  46.3000        495
  46.4000        503
  46.5000        505
  46.6000        501
  46.7000        502
  46.8000        530
  46.9000        503
  47.0000        488
  47.1000        511
  47.2000        501
  47.3000        537
  47.4000        497
  47.5000        510
  47.6000        535
  47.7000        463
  47.8000        524
  47.9000        478
  48.0000        509
  48.1000        457
  48.2000        511
  48.3000        500
  48.4000        530
  48.5000        502
  48.6000        520
  48.7000        518
  48.8000        505
  48.9000        506
  49.0000        532
  49.1000        524
  49.2000        527
  49.3000        501
  49.4000        490
  49.5000        573
  49.6000        518
  49.7000        469
  49.8000        528
  49.9000        490
  50.0000        533
  50.1000        557
  50.2000        530
  50.3000        495
  50.4000        527
  50.5000        593
  50.6000        625
  50.7000        590
  50.8000        598
  50.9000        592
  51.0000        596
  51.1000        627
  51.2000        600
  51.3000        621
  51.4000        598
  51.5000        619
  51.6000        720
  51.7000        862
  51.8000       1071
  51.9000       1286
  52.0000       1321
  52.1000       1495
  52.2000       1599
  52.3000       1630
  52.4000       1659
  52.5000       1478
  52.6000       1254
  52.7000        922
  52.8000        655
  52.9000        602
  53.0000        534
  53.1000        505
  53.2000        550
  53.3000        538
  53.4000        513
  53.5000        526
  53.6000        534
  53.7000        532
  53.8000        511
  53.9000        542
  54.0000        535
  54.1000        537
  54.2000        526
  54.3000        520
  54.4000        543
  54.5000        536
  54.6000        501
  54.7000        579
  54.8000        512
  54.9000        488
  55.0000        546
  55.1000        518
  55.2000        482
  55.3000        503
  55.4000        522
  55.5000        479
  55.6000        536
  55.7000        501
  55.8000        499
  55.9000        521
  56.0000        511
  56.1000        495
  56.2000        484
  56.3000        526
  56.4000        539
  56.5000        556
  56.6000        546
  56.7000        525
  56.8000        554
  56.9000        496
  57.0000        515
  57.1000        488
  57.2000        523
  57.3000        534
  57.4000        543
  57.5000        538
  57.6000        516
  57.7000        530
  57.8000        499
  57.9000        515
  58.0000        550
  58.1000        538
  58.2000        533
  58.3000        507
  58.4000        501
  58.5000        485
  58.6000        530
  58.7000        521
  58.8000        531
  58.9000        578
  59.0000        547
  59.1000        550
  59.2000        590
  59.3000        582
  59.4000        579
  59.5000        599
  59.6000        594
  59.7000        553
  59.8000        589
  59.9000        556
  60.0000        529
  60.1000        511
  60.2000        544
  60.3000        487
  60.4000        535
  60.5000        531
  60.6000        515
  60.7000        526
  60.8000        490
  60.9000        543
  61.0000        533
  61.1000        490
  61.2000        531
  61.3000        531
  61.4000        546
  61.5000        505
  61.6000        520
  61.7000        513
  61.8000        544
  61.9000        490
  62.0000        477
  62.1000        494
  62.2000        530
  62.3000        464
  62.4000        504
  62.5000        541
  62.6000        524
  62.7000        508
  62.8000        520
  62.9000        490
  63.0000        553
  63.1000        517
  63.2000        533
  63.3000        514
  63.4000        539
  63.5000        513
  63.6000        518
  63.7000        494
  63.8000        499
  63.9000        549
  64.0000        527
  64.1000        517
  64.2000        497
  64.3000        503
  64.4000        506
  64.5000        500
  64.6000        497
  64.7000        539
  64.8000        536
  64.9000        535
  65.0000        522
  65.1000        526
  65.2000        513
  65.3000        493
  65.4000        528
  65.5000        490
  65.6000        499
  65.7000        484
  65.8000        524
  65.9000        511
  66.0000        494
  66.1000        507
  66.2000        497
  66.3000        502
  66.4000        483
  66.5000        464
  66.6000        485
  66.7000        536
  66.8000        497
  66.9000        538
  67.0000        542
  67.1000        518
  67.2000        501
  67.3000        491
  67.4000        540
  67.5000        531
  67.6000        502
  67.7000        515
  67.8000        487
  67.9000        496
  68.0000        520
  68.1000        500
  68.2000        508
  68.3000        503
  68.4000        468
  68.5000        524
  68.6000        495
  68.7000        505
  68.8000        526
  68.9000        541
  69.0000        484
  69.1000        482
  69.2000        508
  69.3000        488
  69.4000        491
  69.5000        515
  69.6000        502
  69.7000        552
  69.8000        476
  69.9000        516
  70.0000        503
  70.1000        507
  70.2000        499
  70.3000        552
  70.4000        481
  70.5000        507
  70.6000        498
  70.7000        529
  70.8000        540
  70.9000        502
  71.0000        497
  71.1000        504
  71.2000        479
  71.3000        512
  71.4000        531
  71.5000        523
  71.6000        533
  71.7000        527
  71.8000        515
  71.9000        530
  72.0000        488
  72.1000        522
  72.2000        527
  72.3000        537
  72.4000        489
  72.5000        484
  72.6000        468
  72.7000        497
  72.8000        496
  72.9000        523
  73.0000        489
  73.1000        481
  73.2000        534
  73.3000        512
  73.4000        536
  73.5000        503
  73.6000        536
  73.7000        519
  73.8000        500
  73.9000        485
  74.0000        511
  74.1000        525
  74.2000        489
  74.3000        524
  74.4000        520
  74.5000        534
  74.6000        506
  74.7000        507
  74.8000        486
  74.9000        508
  75.0000        524
  75.1000        526
  75.2000        480
  75.3000        498
  75.4000        529
  75.5000        531
  75.6000        514
  75.7000        508
  75.8000        537
  75.9000        498
  76.0000        526
  76.1000        484
  76.2000        530
  76.3000        589
  76.4000        624
  76.5000        681
  76.6000        806
  76.7000        778
  76.8000        846
  76.9000        859
  77.0000        865
  77.1000        961
  77.2000        875
  77.3000        804
  77.4000        761
  77.5000        669
  77.6000        572
  77.7000        549
  77.8000        539
  77.9000        510
  78.0000        462
  78.1000        502
  78.2000        500
  78.3000        504
  78.4000        532
  78.5000        522
  78.6000        482
  78.7000        501
  78.8000        512
  78.9000        544
  79.0000        488
  79.1000        508
  79.2000        524
  79.3000        511
  79.4000        538
  79.5000        510
  79.6000        489
  79.7000        545
  79.8000        539
  79.9000        520
  80.0000        515
  80.1000        537
  80.2000        484
  80.3000        538
  80.4000        522
  80.5000        502
  80.6000        519
  80.7000        520
  80.8000        508
  80.9000        502
  81.0000        521
  81.1000        491
  81.2000        533
  81.3000        517
  81.4000        504
  81.5000        511
  81.6000        516
  81.7000        511
  81.8000        479
  81.9000        529
  82.0000        508
  82.1000        518
  82.2000        513
  82.3000        472
  82.4000        539
  82.5000        547
  82.6000        537
  82.7000        465
  82.8000        495
  82.9000        528
  83.0000        509
  83.1000        491
  83.2000        501
  83.3000        519
  83.4000        517
  83.5000        499
  83.6000        498
  83.7000        528
  83.8000        527
  83.9000        485
  84.0000        491
  84.1000        542
  84.2000        538
  84.3000        503
  84.4000        493
  84.5000        506
  84.6000        529
  84.7000        528
  84.8000        496
  84.9000        520
  85.0000        492
  85.1000        497
  85.2000        552
  85.3000        510
  85.4000        514
  85.5000        498
  85.6000        513
  85.7000        505
  85.8000        488
  85.9000        505
  86.0000        505
  86.1000        451
  86.2000        516
  86.3000        489
  86.4000        499
  86.5000        484
  86.6000        507
  86.7000        524
  86.8000        549
  86.9000        509
  87.0000        502
  87.1000        470
  87.2000        514
  87.3000        479
  87.4000        521
  87.5000        547
  87.6000        550
  87.7000        488
  87.8000        454
  87.9000        503
  88.0000        528
  88.1000        498
  88.2000        495
  88.3000        471
  88.4000        533
  88.5000        524
  88.6000        552
  88.7000        562
  88.8000        635
  88.9000        640
  89.0000        634
  89.1000        751
  89.2000        748
  89.3000        728
  89.4000        750
  89.5000        742
  89.6000        680
  89.7000        699
  89.8000        645
  89.9000        567
  90.0000        566
  90.1000        523
  90.2000        553
  90.3000        532
  90.4000        498
  90.5000        517
  90.6000        492
  90.7000        525
  90.8000        520
  90.9000        528
  91.0000        522
  91.1000        532
  91.2000        530
  91.3000        495
  91.4000        488
  91.5000        513
  91.6000        512
  91.7000        529
  91.8000        545
  91.9000        500
  92.0000        538
  92.1000        501
  92.2000        477
  92.3000        486
  92.4000        495
  92.5000        522
  92.6000        488
  92.7000        520
  92.8000        497
  92.9000        484
  93.0000        497
  93.1000        528
  93.2000        507
  93.3000        476
  93.4000        511
  93.5000        532
  93.6000        495
  93.7000        569
  93.8000        494
  93.9000        493
  94.0000        520
  94.1000        517
  94.2000        499
  94.3000        503
  94.4000        500
  94.5000        515
  94.6000        547
  94.7000        523
  94.8000        509
  94.9000        485
  95.0000        487
  95.1000        522
  95.2000        479
  95.3000        510
  95.4000        455
  95.5000        540
  95.6000        504
  95.7000        510
  95.8000        496
  95.9000        507
  96.0000        504
  96.1000        519
  96.2000        501
  96.3000        509
  96.4000        570
  96.5000        479
  96.6000        496
  96.7000        498
  96.8000        458
  96.9000        501
  97.0000        541
  97.1000        489
  97.2000        498
  97.3000        526
  97.4000        506
  97.5000        518
  97.6000        546
  97.7000        558
  97.8000        482
  97.9000        547
  98.0000        534
  98.1000        492
  98.2000        493
  98.3000        531
  98.4000        521
  98.5000        570
  98.6000        597
  98.7000        640
  98.8000        764
  98.9000        976
  99.0000       1066
  99.1000       1242
  99.2000       1353
  99.3000       1373
  99.4000       1415
  99.5000       1359
  99.6000       1295
  99.7000       1095
  99.8000        926
  99.9000        853
 100.0000        749
 100.1000        598
 100.2000        592
 100.3000        530
 100.4000        573
 100.5000        528
 100.6000        552
 100.7000        542
 100.8000        546
 100.9000        583
 101.0000        536
 101.1000        534
 101.2000        518
 101.3000        531
 101.4000        536
 101.5000        512
 101.6000        513
 101.7000        484
 101.8000        489
 101.9000        519
 102.0000        525
 102.1000        497
 102.2000        502
 102.3000        523
 102.4000        515
 102.5000        518
 102.6000        521
 102.7000        497
 102.8000        537
 102.9000        522
 103.0000        530
 103.1000        540
 103.2000        508
 103.3000        541
 103.4000        523
 103.5000        504
 103.6000        524
 103.7000        510
 103.8000        516
 103.9000        544
 104.0000        521
 104.1000        498
 104.2000        526
 104.3000        502
 104.4000        517
 104.5000        501
 104.6000        517
 104.7000        507
 104.8000        499
 104.9000        542
 105.0000        477
 105.1000        533
 105.2000        493
 105.3000        487
 105.4000        509
 105.5000        537
 105.6000        529
 105.7000        515
 105.8000        494
 105.9000        528
 106.0000        511
 106.1000        501
 106.2000        514
 106.3000        525
 106.4000        555
 106.5000        512
 106.6000        551
 106.7000        504
 106.8000        514
 106.9000        509
 107.0000        490
 107.1000        487
 107.2000        515
 107.3000        537
 107.4000        493
 107.5000        523
 107.6000        491
 107.7000        504
 107.8000        522
 107.9000        523
 108.0000        560
 108.1000        539
 108.2000        485
 108.3000        508
 108.4000        501
 108.5000        509
 108.6000        543
 108.7000        480
 108.8000        493
 108.9000        531
 109.0000        550
 109.1000        525
 109.2000        521
 109.3000        485
 109.4000        510
 109.5000        537
 109.6000        542
 109.7000        497
 109.8000        556
 109.9000        542
 110.0000        505
 110.1000        539
 110.2000        551
 110.3000        551
 110.4000        554
 110.5000        624
 110.6000        544
 110.7000        585
 110.8000        629
 110.9000        618
 111.0000        636
 111.1000        626
 111.2000        641
 111.3000        615
 111.4000        552
 111.5000        548
 111.6000        574
 111.7000        524
 111.8000        549
 111.9000        481
 112.0000        511
 112.1000        553
 112.2000        512
 112.3000        509
 112.4000        545
 112.5000        493
 112.6000        503
 112.7000        538
 112.8000        488
 112.9000        501
 113.0000        477
 113.1000        523
 113.2000        483
 113.3000        497
 113.4000        524
 113.5000        487
 113.6000        513
 113.7000        463
 113.8000        518
 113.9000        503
 114.0000        523
 114.1000        499
 114.2000        490
 114.3000        513
 114.4000        523
 114.5000        511
 114.6000        503
 114.7000        545
 114.8000        535
 114.9000        500
 115.0000        472
 115.1000        502
 115.2000        561
 115.3000        462
 115.4000        485
 115.5000        495
 115.6000        519
 115.7000        502
 115.8000        563
 115.9000        538
 116.0000        468
 116.1000        503
 116.2000        512
 116.3000        495
 116.4000        487
 116.5000        550
 116.6000        508
 116.7000        491
 116.8000        471
 116.9000        530
 117.0000        522
 117.1000        498
 117.2000        516
 117.3000        511
 117.4000        490
 117.5000        508
 117.6000        489
 117.7000        516
 117.8000        539
 117.9000        522
 118.0000        520
 118.1000        494
 118.2000        497
 118.3000        456
 118.4000        530
 118.5000        526
 118.6000        530
 118.7000        507
 118.8000        523
 118.9000        545
 119.0000        508
 119.1000        487
 119.2000        533
 119.3000        495
 119.4000        484
 119.5000        482
 119.6000        539
 119.7000        522
 119.8000        482
 119.9000        531
 120.0000        475
 120.1000        503
 120.2000        521
 120.3000        500
 120.4000        493
 120.5000        517
 120.6000        491
 120.7000        496
 120.8000        510
 120.9000        506
 121.0000        529
 121.1000        483
 121.2000        474
 121.3000        513
 121.4000        471
 121.5000        524
 121.6000        486
 121.7000        509
 121.8000        504
 121.9000        494
 122.0000        486
 122.1000        530
 122.2000        532
 122.3000        493
 122.4000        511
 122.5000        523
 122.6000        502
 122.7000        553
 122.8000        548
 122.9000        569
 123.0000        604
 123.1000        589
 123.2000        662
 123.3000        611
 123.4000        642
 123.5000        695
 123.6000        652
 123.7000        677
 123.8000        591
 123.9000        620
 124.0000        557
 124.1000        576
 124.2000        543
 124.3000        556
 124.4000        568
 124.5000        510
 124.6000        524
 124.7000        525
 124.8000        546
 124.9000        477
 125.0000        480
 125.1000        502
 125.2000        521
 125.3000        505
 125.4000        497
 125.5000        515
 125.6000        529
 125.7000        501
 125.8000        545
 125.9000        523
 126.0000        540
 126.1000        486
 126.2000        515
 126.3000        514
 126.4000        471
 126.5000        513
 126.6000        506
 126.7000        511
 126.8000        474
 126.9000        528
 127.0000        534
 127.1000        509
 127.2000        495
 127.3000        508
 127.4000        459
 127.5000        561
 127.6000        538
 127.7000        527
 127.8000        524
 127.9000        523
 128.0000        524
 128.1000        516
 128.2000        535
 128.3000        491
 128.4000        476
 128.5000        528
 128.6000        528
 128.7000        471
 128.8000        515
 128.9000        504
 129.0000        551
 129.1000        525
 129.2000        495
 129.3000        489
 129.4000        529
 129.5000        541
 129.6000        493
 129.7000        473
 129.8000        500
 129.9000        503
 130.0000        523

; Data for range 2
_DRIVE = COUPLED
_STEPTIME = 0.2
_STEPSIZE = 0.1
_STEPMODE = C
_START = 40
_THETA = 20
_2THETA = 40
_KHI = 10.5
_PHI = 60
_X = 0
_Y = 0
_Z = 0
_DETECTOR = 1
; Detector type : Scintillation counter
_HV = 687
_GAIN = 80
_LLD = 0.69
_ULD = 1.866
_DETECTORSLIT = unkn
_AUX1 = 0
_AUX2 = 0
_AUX3 = 0
_TIMESTARTED = 225
_TEMP_RATE = -1
_TEMP_DELAY = -1
_KV = 35
_MA = 40
_RANGE_WL = 1.78897
_3DPLANE = 0
_V4_ADDITIONALDETECTOR = 0
_V4_D8_DIBNUM = 1
_V4_DETECTORNAME = "Detector 1"
_V4_TTLDETECTOR = None
_V4_DETECTORTYPE = 1
_V4_DETECTORFLAGS = 524545
_V4_DETECTORHV = 687
_V4_DETECTORGAIN = 80
_V4_DETECTORLLD1 = 0.69
_V4_DETECTORWW1 = 1.176
_V4_DETECTORLLD2 = 0
_V4_DETECTORWW2 = 0
_V4_DETECTORPS = 0
_V4_DETECTORDT = 0
_V4_DETECTORPILEUPTIME = 0
_V4_COUNTERS_MASK = 1
_V4_DRIVES_MASK = 0
_V4_ENCODERS_MASK = 0
_2THETACOUNTS = 1
; 2THETA  Cnt1_D1
  40.0000        463
  40.1000        489
  40.2000        479
  40.3000        464
  40.4000        493
  40.5000        485
  40.6000        465
  40.7000        470
  40.8000        453
  40.9000        448
  41.0000        502
  41.1000        440
  41.2000        494
  41.3000        498
  41.4000        485
  41.5000        455
  41.6000        474
  41.7000        502
  41.8000        452
  41.9000        493
  42.0000        496
  42.1000        507
  42.2000        500
  42.3000        481
  42.4000        509
  42.5000        493
  42.6000        488
  42.7000        473
  42.8000        481
  42.9000        440
  43.0000        480
  43.1000        522
  43.2000        497
  43.3000        496
  43.4000        506
  43.5000        482
  43.6000        449
  43.7000        457
  43.8000        491
  43.9000        490
  44.0000        517
  44.1000        480
  44.2000        487
  44.3000        474
  44.4000        466
  44.5000        510
  44.6000        517
  44.7000        493
  44.8000        503
  44.9000        525
  45.0000        508
  45.1000        519
  45.2000        493
  45.3000        518
  45.4000        527
  45.5000        485
  45.6000        507
  45.7000        483
  45.8000        458
  45.9000        496
  46.0000        540
  46.1000        495
  46.2000        483
  46.3000        506
  46.4000        513
  46.5000        462
  46.6000        521
  46.7000        537
  46.8000        516
  46.9000        538
  47.0000        465
  47.1000        519
  47.2000        479
  47.3000        502
  47.4000        517
  47.5000        483
  47.6000        534
  47.7000        506
  47.8000        510
  47.9000        499
  48.0000        526
  48.1000        501
  48.2000        520
  48.3000        530
  48.4000        515
  48.5000        531
  48.6000        504
  48.7000        518
  48.8000        536
  48.9000        515
  49.0000        558
  49.1000        536
  49.2000        528
  49.3000        496
  49.4000        519
  49.5000        518
  49.6000        503
  49.7000        496
  49.8000        501
  49.9000        489
  50.0000        539
  50.1000        493
  50.2000        541
  50.3000        565
  50.4000        528
  50.5000        628
  50.6000        639
  50.7000        652
  50.8000        635
  50.9000        709
  51.0000        697
  51.1000        619
  51.2000        672
  51.3000        620
  51.4000        594
  51.5000        627
  51.6000        687
  51.7000        911
  51.8000       1066
  51.9000       1164
  52.0000       1241
  52.1000       1182
  52.2000       1163
  52.3000       1191
  52.4000       1091
  52.5000       1063
  52.6000        876
  52.7000        706
  52.8000        596
  52.9000        503
  53.0000        497
  53.1000        503
  53.2000        505
  53.3000        578
  53.4000        558
  53.5000        544
  53.6000        460
  53.7000        506
  53.8000        506
  53.9000        515
  54.0000        538
  54.1000        538
  54.2000        524
  54.3000        534
  54.4000        536
  54.5000        501
  54.6000        550
  54.7000        519
  54.8000        550
  54.9000        527
  55.0000        507
  55.1000        546
  55.2000        534
  55.3000        550
  55.4000        537
  55.5000        554
  55.6000        535
  55.7000        494
  55.8000        548
  55.9000        527
  56.0000        504
  56.1000        538
  56.2000        490
  56.3000        500
  56.4000        499
  56.5000        510
  56.6000        540
  56.7000        541
  56.8000        537
  56.9000        466
  57.0000        496
  57.1000        544
  57.2000        525
  57.3000        528
  57.4000        523
  57.5000        504
  57.6000        518
  57.7000        533
  57.8000        510
  57.9000        527
  58.0000        536
  58.1000        525
  58.2000        504
  58.3000        507
  58.4000        520
  58.5000        512
  58.6000        549
  58.7000        531
  58.8000        518
  58.9000        553
  59.0000        555
  59.1000        588
  59.2000        564
  59.3000        614
  59.4000        608
  59.5000        622
  59.6000        598
  59.7000        588
  59.8000        559
  59.9000        567
  60.0000        569
  60.1000        545
  60.2000        512
  60.3000        529
  60.4000        576
  60.5000        532
  60.6000        469
  60.7000        547
  60.8000        544
  60.9000        512
  61.0000        501
  61.1000        495
  61.2000        504
  61.3000        500
  61.4000        522
  61.5000        497
  61.6000        526
  61.7000        518
  61.8000        532
  61.9000        527
  62.0000        532
  62.1000        479
  62.2000        533
  62.3000        490
  62.4000        555
  62.5000        518
  62.6000        505
  62.7000        545
  62.8000        563
  62.9000        509
  63.0000        553
  63.1000        526
  63.2000        504
  63.3000        490
  63.4000        492
  63.5000        507
  63.6000        522
  63.7000        482
  63.8000        503
  63.9000        558
  64.0000        530
  64.1000        505
  64.2000        522
  64.3000        521
  64.4000        498
  64.5000        532
  64.6000        502
  64.7000        530
  64.8000        455
  64.9000        555
  65.0000        523
  65.1000        543
  65.2000        499
  65.3000        503
  65.4000        512
  65.5000        475
  65.6000        496
  65.7000        524
  65.8000        538
  65.9000        570
  66.0000        562
  66.1000        520
  66.2000        552
  66.3000        504
  66.4000        513
  66.5000        542
  66.6000        528
  66.7000        517
  66.8000        518
  66.9000        544
  67.0000        538
  67.1000        501
  67.2000        517
  67.3000        553
  67.4000        511
  67.5000        524
  67.6000        485
  67.7000        478
  67.8000        519
  67.9000        517
  68.0000        527
  68.1000        530
  68.2000        514
  68.3000        547
  68.4000        527
  68.5000        478
  68.6000        485
  68.7000        507
  68.8000        563
  68.9000        497
  69.0000        540
  69.1000        538
  69.2000        475
  69.3000        484
  69.4000        534
  69.5000        532
  69.6000        493
  69.7000        524
  69.8000        517
  69.9000        506
  70.0000        518
  70.1000        481
  70.2000        519
  70.3000        527
  70.4000        510
  70.5000        498
  70.6000        508
  70.7000        526
  70.8000        488
  70.9000        522
  71.0000        523
  71.1000        466
  71.2000        536
  71.3000        488
  71.4000        543
  71.5000        472
  71.6000        518
  71.7000        517
  71.8000        527
  71.9000        491
  72.0000        517
  72.1000        501
  72.2000        510
  72.3000        541
  72.4000        521
  72.5000        511
  72.6000        501
  72.7000        553
  72.8000        511
  72.9000        547
  73.0000        506
  73.1000        501
  73.2000        482
  73.3000        513
  73.4000        525
  73.5000        527
  73.6000        482
  73.7000        525
  73.8000        501
  73.9000        511
  74.0000        495
  74.1000        584
  74.2000        505
  74.3000        542
  74.4000        529
  74.5000        522
  74.6000        510
  74.7000        521
  74.8000        482
  74.9000        488
  75.0000        515
  75.1000        545
  75.2000        500
  75.3000        492
  75.4000        516
  75.5000        520
  75.6000        523
  75.7000        506
  75.8000        553
  75.9000        490
  76.0000        545
  76.1000        583
  76.2000        572
  76.3000        606
  76.4000        633
  76.5000        686
  76.6000        693
  76.7000        727
  76.8000        783
  76.9000        819
  77.0000        710
  77.1000        768
  77.2000        712
  77.3000        658
  77.4000        566
  77.5000        603
  77.6000        579
  77.7000        566
  77.8000        518
  77.9000        505
  78.0000        542
  78.1000        534
  78.2000        523
  78.3000        477
  78.4000        508
  78.5000        508
  78.6000        483
  78.7000        489
  78.8000        494
  78.9000        495
  79.0000        512
  79.1000        485
  79.2000        531
  79.3000        493
  79.4000        483
  79.5000        513
  79.6000        514
  79.7000        496
  79.8000        490
  79.9000        503
  80.0000        507
  80.1000        485
  80.2000        511
  80.3000        490
  80.4000        513
  80.5000        481
  80.6000        548
  80.7000        532
  80.8000        513
  80.9000        500
  81.0000        508
  81.1000        538
  81.2000        503
  81.3000        499
  81.4000        528
  81.5000        530
  81.6000        501
  81.7000        498
  81.8000        529
  81.9000        501
  82.0000        485
  82.1000        494
  82.2000        515
  82.3000        563
  82.4000        574
  82.5000        501
  82.6000        541
  82.7000        491
  82.8000        534
  82.9000        515
  83.0000        510
  83.1000        503
  83.2000        513
  83.3000        535
  83.4000        505
  83.5000        479
  83.6000        528
  83.7000        508
  83.8000        498
  83.9000        507
  84.0000        515
  84.1000        522
  84.2000        469
  84.3000        475
  84.4000        542
  84.5000        520
  84.6000        516
  84.7000        508
  84.8000        506
  84.9000        528
  85.0000        494
  85.1000        507
  85.2000        530
  85.3000        526
  85.4000        473
  85.5000        488
  85.6000        500
  85.7000        511
  85.8000        525
  85.9000        535
  86.0000        499
  86.1000        502
  86.2000        550
  86.3000        519
  86.4000        514
  86.5000        501
  86.6000        511
  86.7000        472
  86.8000        507
  86.9000        487
  87.0000        470
  87.1000        512
  87.2000        537
  87.3000        514
  87.4000        543
  87.5000        527
  87.6000        456
  87.7000        531
  87.8000        504
  87.9000        520
  88.0000        483
  88.1000        502
  88.2000        526
  88.3000        521
  88.4000        475
  88.5000        532
  88.6000        552
  88.7000        587
  88.8000        540
  88.9000        589
  89.0000        659
  89.1000        633
  89.2000        610
  89.3000        637
  89.4000        597
  89.5000        631
  89.6000        632
  89.7000        571
  89.8000        560
  89.9000        515
  90.0000        484
  90.1000        519
  90.2000        486
  90.3000        513
  90.4000        509
  90.5000        529
  90.6000        528
  90.7000        513
  90.8000        541
  90.9000        525
  91.0000        492
  91.1000        510
  91.2000        526
  91.3000        468
  91.4000        510
  91.5000        529
  91.6000        507
  91.7000        545
  91.8000        512
  91.9000        530
  92.0000        473
  92.1000        527
  92.2000        513
  92.3000        510
  92.4000        501
  92.5000        471
  92.6000        522
  92.7000        528
  92.8000        512
  92.9000        476
  93.0000        521
  93.1000        521
  93.2000        548
  93.3000        525
  93.4000        508
  93.5000        497
  93.6000        500
  93.7000        483
  93.8000        511
  93.9000        491
  94.0000        524
  94.1000        480
  94.2000        511
  94.3000        510
  94.4000        508
  94.5000        467
  94.6000        530
  94.7000        495
  94.8000        495
  94.9000        474
  95.0000        540
  95.1000        486
  95.2000        485
  95.3000        537
  95.4000        506
  95.5000        517
  95.6000        496
  95.7000        500
  95.8000        501
  95.9000        496
  96.0000        491
  96.1000        494
  96.2000        493
  96.3000        555
  96.4000        448
  96.5000        506
  96.6000        511
  96.7000        519
  96.8000        506
  96.9000        495
  97.0000        502
  97.1000        524
  97.2000        516
  97.3000        499
  97.4000        475
  97.5000        514
  97.6000        515
  97.7000        518
  97.8000        533
  97.9000        541
  98.0000        515
  98.1000        548
  98.2000        511
  98.3000        499
  98.4000        568
  98.5000        543
  98.6000        594
  98.7000        612
  98.8000        745
  98.9000        760
  99.0000        867
  99.1000        964
  99.2000       1016
  99.3000       1057
  99.4000       1102
  99.5000       1092
  99.6000       1011
  99.7000        903
  99.8000        816
  99.9000        729
 100.0000        619
 100.1000        601
 100.2000        615
 100.3000        554
 100.4000        529
 100.5000        492
 100.6000        522
 100.7000        538
 100.8000        551
 100.9000        520
 101.0000        512
 101.1000        509
 101.2000        498
 101.3000        486
 101.4000        530
 101.5000        459
 101.6000        493
 101.7000        503
 101.8000        490
 101.9000        522
 102.0000        473
 102.1000        536
 102.2000        487
 102.3000        496
 102.4000        521
 102.5000        501
 102.6000        548
 102.7000        519
 102.8000        545
 102.9000        563
 103.0000        524
 103.1000        493
 103.2000        505
 103.3000        512
 103.4000        501
 103.5000        515
 103.6000        554
 103.7000        522
 103.8000        498
 103.9000        496
 104.0000        460
 104.1000        467
 104.2000        541
 104.3000        551
 104.4000        487
 104.5000        516
 104.6000        489
 104.7000        514
 104.8000        500
 104.9000        487
 105.0000        524
 105.1000        536
 105.2000        555
 105.3000        532
 105.4000        538
 105.5000        518
 105.6000        517
 105.7000        521
 105.8000        505
 105.9000        524
 106.0000        509
 106.1000        508
 106.2000        507
 106.3000        464
 106.4000        514
 106.5000        524
 106.6000        511
 106.7000        500
 106.8000        528
 106.9000        497
 107.0000        504
 107.1000        479
 107.2000        478
 107.3000        546
 107.4000        503
 107.5000        487
 107.6000        493
 107.7000        511
 107.8000        509
 107.9000        502
 108.0000        510
 108.1000        489
 108.2000        540
 108.3000        507
 108.4000        512
 108.5000        523
 108.6000        552
 108.7000        519
 108.8000        524
 108.9000        516
 109.0000        522
 109.1000        506
 109.2000        509
 109.3000        523
 109.4000        489
 109.5000        500
 109.6000        557
 109.7000        509
 109.8000        540
 109.9000        501
 110.0000        553
 110.1000        487
 110.2000        554
 110.3000        514
 110.4000        507
 110.5000        587
 110.6000        575
 110.7000        588
 110.8000        565
 110.9000        609
 111.0000        534
 111.1000        604
 111.2000        601
 111.3000        581
 111.4000        572
 111.5000        575
 111.6000        560
 111.7000        569
 111.8000        522
 111.9000        526
 112.0000        522
 112.1000        515
 112.2000        530
 112.3000        506
 112.4000        526
 112.5000        542
 112.6000        503
 112.7000        519
 112.8000        495
 112.9000        499
 113.0000        531
 113.1000        507
 113.2000        516
 113.3000        540
 113.4000        512
 113.5000        518
 113.6000        524
 113.7000        529
 113.8000        518
 113.9000        504
 114.0000        485
 114.1000        550
 114.2000        485
 114.3000        496
 114.4000        523
 114.5000        517
 114.6000        505
 114.7000        514
 114.8000        528
 114.9000        505
 115.0000        489
 115.1000        513
 115.2000        502
 115.3000        525
 115.4000        537
 115.5000        500
 115.6000        552
 115.7000        501
 115.8000        547
 115.9000        531
 116.0000        508
 116.1000        534
 116.2000        476
 116.3000        510
 116.4000        492
 116.5000        526
 116.6000        546
 116.7000        513
 116.8000        529
 116.9000        512
 117.0000        466
 117.1000        496
 117.2000        516
 117.3000        509
 117.4000        531
 117.5000        464
 117.6000        492
 117.7000        495
 117.8000        507
 117.9000        555
 118.0000        523
 118.1000        494
 118.2000        515
 118.3000        489
 118.4000        532
 118.5000        584
 118.6000        520
 118.7000        534
 118.8000        542
 118.9000        514
 119.0000        546
 119.1000        530
 119.2000        483
 119.3000        549
 119.4000        507
 119.5000        506
 119.6000        489
 119.7000        572
 119.8000        511
 119.9000        512
 120.0000        494
 120.1000        525
 120.2000        505
 120.3000        479
 120.4000        505
 120.5000        476
 120.6000        512
 120.7000        500
 120.8000        499
 120.9000        526
 121.0000        546
 121.1000        483
 121.2000        521
 121.3000        502
 121.4000        463
 121.5000        542
 121.6000        461
 121.7000        497
 121.8000        523
 121.9000        511
 122.0000        512
 122.1000        514
 122.2000        491
 122.3000        513
 122.4000        515
 122.5000        524
 122.6000        520
 122.7000        537
 122.8000        549
 122.9000        575
 123.0000        591
 123.1000        580
 123.2000        662
 123.3000        626
 123.4000        600
 123.5000        606
 123.6000        623
 123.7000        581
 123.8000        598
 123.9000        539
 124.0000        520
 124.1000        532
 124.2000        521
 124.3000        524
 124.4000        542
 124.5000        502
 124.6000        496
 124.7000        489
 124.8000        502
 124.9000        499
 125.0000        485
 125.1000        501
 125.2000        481
 125.3000        521
 125.4000        503
 125.5000        498
 125.6000        504
 125.7000        486
 125.8000        557
 125.9000        520
 126.0000        494
 126.1000        528
 126.2000        567
 126.3000        542
 126.4000        531
 126.5000        520
 126.6000        512
 126.7000        505
 126.8000        507
 126.9000        474
 127.0000        529
 127.1000        497
 127.2000        526
 127.3000        459
 127.4000        533
 127.5000        516
 127.6000        512
[...]
 129.1000        317
 129.2000        307
 129.3000        348
 129.4000        271
 129.5000        291
 129.6000        298
 129.7000        298
 129.8000        301
 129.9000        321
 130.0000        314

; Data for range 53
_DRIVE = COUPLED
_STEPTIME = 0.2
_STEPSIZE = 0.1
_STEPMODE = C
_START = 40
_THETA = 20
_2THETA = 40
_KHI = 80
_PHI = 0
_X = 0
_Y = 0
_Z = 0
_DETECTOR = 1
; Detector type : Scintillation counter
_HV = 687
_GAIN = 80
_LLD = 0.69
_ULD = 1.866
_DETECTORSLIT = unkn
_AUX1 = 0
_AUX2 = 0
_AUX3 = 0
_TIMESTARTED = 1.03e+004
_TEMP_RATE = -1
_TEMP_DELAY = -1
_KV = 35
_MA = 40
_RANGE_WL = 1.78897
_3DPLANE = 0
_V4_ADDITIONALDETECTOR = 0
_V4_D8_DIBNUM = 1
_V4_DETECTORNAME = "Detector 1"
_V4_TTLDETECTOR = None
_V4_DETECTORTYPE = 1
_V4_DETECTORFLAGS = 524545
_V4_DETECTORHV = 687
_V4_DETECTORGAIN = 80
_V4_DETECTORLLD1 = 0.69
_V4_DETECTORWW1 = 1.176
_V4_DETECTORLLD2 = 0
_V4_DETECTORWW2 = 0
_V4_DETECTORPS = 0
_V4_DETECTORDT = 0
_V4_DETECTORPILEUPTIME = 0
_V4_COUNTERS_MASK = 1
_V4_DRIVES_MASK = 0
_V4_ENCODERS_MASK = 0
_2THETACOUNTS = 1
; 2THETA  Cnt1_D1
  40.0000        168
  40.1000        153
  40.2000        174
  40.3000        159
  40.4000        185
  40.5000        155
  40.6000        177
  40.7000        175
  40.8000        164
  40.9000        160
  41.0000        193
  41.1000        168
  41.2000        168
  41.3000        180
  41.4000        154
  41.5000        170
  41.6000        192
  41.7000        195
  41.8000        168
  41.9000        187
  42.0000        156
  42.1000        176
  42.2000        152
  42.3000        181
  42.4000        203
  42.5000        209
  42.6000        210
  42.7000        212
  42.8000        222
  42.9000        264
  43.0000        258
  43.1000        297
  43.2000        271
  43.3000        249
  43.4000        262
  43.5000        269
  43.6000        250
  43.7000        215
  43.8000        229
  43.9000        211
  44.0000        193
  44.1000        198
  44.2000        201
  44.3000        195
  44.4000        210
  44.5000        202
  44.6000        185
  44.7000        169
  44.8000        181
  44.9000        190
  45.0000        189
  45.1000        201
  45.2000        182
  45.3000        162
  45.4000        173
  45.5000        165
  45.6000        204
  45.7000        168
  45.8000        175
  45.9000        186
  46.0000        185
  46.1000        169
  46.2000        205
  46.3000        167
  46.4000        207
  46.5000        193
  46.6000        195
  46.7000        198
  46.8000        193
  46.9000        164
  47.0000        171
  47.1000        189
  47.2000        190
  47.3000        183
  47.4000        181
  47.5000        179
  47.6000        194
  47.7000        188
  47.8000        208
  47.9000        198
  48.0000        193
  48.1000        192
  48.2000        171
  48.3000        183
  48.4000        183
  48.5000        208
  48.6000        205
  48.7000        181
  48.8000        211
  48.9000        204
  49.0000        186
  49.1000        196
  49.2000        202
  49.3000        171
  49.4000        210
  49.5000        202
  49.6000        202
  49.7000        206
  49.8000        227
  49.9000        246
  50.0000        203
  50.1000        253
  50.2000        292
  50.3000        279
  50.4000        315
  50.5000        329
  50.6000        342
  50.7000        373
  50.8000        356
  50.9000        329
  51.0000        390
  51.1000        350
  51.2000        344
  51.3000        367
  51.4000        412
  51.5000        390
  51.6000        491
  51.7000        514
  51.8000        596
  51.9000        641
  52.0000        733
  52.1000        728
  52.2000        823
  52.3000        754
  52.4000        786
  52.5000        712
  52.6000        722
  52.7000        667
  52.8000        644
  52.9000        574
  53.0000        451
  53.1000        433
  53.2000        437
  53.3000        360
  53.4000        337
  53.5000        278
  53.6000        250
  53.7000        212
  53.8000        213
  53.9000        217
  54.0000        195
  54.1000        199
  54.2000        207
  54.3000        173
  54.4000        229
  54.5000        219
  54.6000        207
  54.7000        216
  54.8000        193
  54.9000        213
  55.0000        203
  55.1000        197
  55.2000        191
  55.3000        228
  55.4000        200
  55.5000        192
  55.6000        216
  55.7000        213
  55.8000        196
  55.9000        213
  56.0000        196
  56.1000        201
  56.2000        184
  56.3000        209
  56.4000        192
  56.5000        228
  56.6000        207
  56.7000        197
  56.8000        185
  56.9000        226
  57.0000        216
  57.1000        194
  57.2000        215
  57.3000        207
  57.4000        203
  57.5000        229
  57.6000        224
  57.7000        200
  57.8000        210
  57.9000        210
  58.0000        228
  58.1000        226
  58.2000        213
  58.3000        244
  58.4000        215
  58.5000        198
  58.6000        209
  58.7000        224
  58.8000        236
  58.9000        232
  59.0000        230
  59.1000        244
  59.2000        249
  59.3000        226
  59.4000        233
  59.5000        258
  59.6000        234
  59.7000        267
  59.8000        232
  59.9000        254
  60.0000        235
  60.1000        254
  60.2000        238
  60.3000        201
  60.4000        230
  60.5000        214
  60.6000        214
  60.7000        208
  60.8000        229
  60.9000        200
  61.0000        214
  61.1000        217
  61.2000        193
  61.3000        228
  61.4000        234
  61.5000        228
  61.6000        238
  61.7000        221
  61.8000        210
  61.9000        211
  62.0000        214
  62.1000        226
  62.2000        206
  62.3000        190
  62.4000        238
  62.5000        211
  62.6000        208
  62.7000        193
  62.8000        224
  62.9000        217
  63.0000        239
  63.1000        229
  63.2000        217
  63.3000        200
  63.4000        214
  63.5000        209
  63.6000        229
  63.7000        235
  63.8000        195
  63.9000        212
  64.0000        227
  64.1000        258
  64.2000        208
  64.3000        227
  64.4000        224
  64.5000        222
  64.6000        232
  64.7000        242
  64.8000        226
  64.9000        235
  65.0000        223
  65.1000        221
  65.2000        220
  65.3000        216
  65.4000        214
  65.5000        218
  65.6000        220
  65.7000        237
  65.8000        235
  65.9000        194
  66.0000        239
  66.1000        212
  66.2000        250
  66.3000        222
  66.4000        200
  66.5000        213
  66.6000        250
  66.7000        221
  66.8000        232
  66.9000        218
  67.0000        211
  67.1000        233
  67.2000        228
  67.3000        221
  67.4000        203
  67.5000        245
  67.6000        231
  67.7000        233
  67.8000        230
  67.9000        213
  68.0000        228
  68.1000        221
  68.2000        184
  68.3000        230
  68.4000        226
  68.5000        238
  68.6000        241
  68.7000        217
  68.8000        242
  68.9000        236
  69.0000        247
  69.1000        237
  69.2000        237
  69.3000        271
  69.4000        243
  69.5000        240
  69.6000        223
  69.7000        245
  69.8000        251
  69.9000        250
  70.0000        231
  70.1000        248
  70.2000        255
  70.3000        263
  70.4000        264
  70.5000        233
  70.6000        241
  70.7000        212
  70.8000        230
  70.9000        209
  71.0000        226
  71.1000        227
  71.2000        232
  71.3000        209
  71.4000        263
  71.5000        247
  71.6000        240
  71.7000        232
  71.8000        239
  71.9000        236
  72.0000        243
  72.1000        245
  72.2000        258
  72.3000        240
  72.4000        285
  72.5000        246
  72.6000        220
  72.7000        262
  72.8000        237
  72.9000        228
  73.0000        217
  73.1000        267
  73.2000        238
  73.3000        247
  73.4000        255
  73.5000        251
  73.6000        243
  73.7000        237
  73.8000        251
  73.9000        233
  74.0000        253
  74.1000        240
  74.2000        238
  74.3000        262
  74.4000        228
  74.5000        289
  74.6000        264
  74.7000        258
  74.8000        242
  74.9000        235
  75.0000        257
  75.1000        253
  75.2000        274
  75.3000        230
  75.4000        254
  75.5000        253
  75.6000        248
  75.7000        257
  75.8000        242
  75.9000        236
  76.0000        264
  76.1000        297
  76.2000        266
  76.3000        313
  76.4000        302
  76.5000        281
  76.6000        279
  76.7000        296
  76.8000        304
  76.9000        278
  77.0000        280
  77.1000        310
  77.2000        284
  77.3000        294
  77.4000        256
  77.5000        291
  77.6000        302
  77.7000        268
  77.8000        296
  77.9000        266
  78.0000        245
  78.1000        253
  78.2000        267
  78.3000        276
  78.4000        275
  78.5000        269
  78.6000        265
  78.7000        238
  78.8000        247
  78.9000        256
  79.0000        245
  79.1000        240
  79.2000        276
  79.3000        248
  79.4000        256
  79.5000        249
  79.6000        257
  79.7000        245
  79.8000        261
  79.9000        254
  80.0000        257
  80.1000        259
  80.2000        260
  80.3000        273
  80.4000        257
  80.5000        280
  80.6000        269
  80.7000        255
  80.8000        238
  80.9000        254
  81.0000        231
  81.1000        247
  81.2000        256
  81.3000        286
  81.4000        248
  81.5000        266
  81.6000        270
  81.7000        252
  81.8000        248
  81.9000        293
  82.0000        284
  82.1000        287
  82.2000        256
  82.3000        257
  82.4000        271
  82.5000        246
  82.6000        264
  82.7000        263
  82.8000        273
  82.9000        264
  83.0000        264
  83.1000        296
  83.2000        274
  83.3000        283
  83.4000        251
  83.5000        286
  83.6000        257
  83.7000        251
  83.8000        294
  83.9000        243
  84.0000        294
  84.1000        289
  84.2000        252
  84.3000        262
  84.4000        271
  84.5000        255
  84.6000        257
  84.7000        287
  84.8000        252
  84.9000        273
  85.0000        248
  85.1000        265
  85.2000        267
  85.3000        233
  85.4000        284
  85.5000        265
  85.6000        277
  85.7000        274
  85.8000        267
  85.9000        281
  86.0000        257
  86.1000        273
  86.2000        271
  86.3000        303
  86.4000        248
  86.5000        294
  86.6000        266
  86.7000        292
  86.8000        293
  86.9000        260
  87.0000        266
  87.1000        289
  87.2000        246
  87.3000        232
  87.4000        272
  87.5000        255
  87.6000        292
  87.7000        257
  87.8000        258
  87.9000        273
  88.0000        241
  88.1000        288
  88.2000        277
  88.3000        269
  88.4000        266
  88.5000        288
  88.6000        302
  88.7000        313
  88.8000        303
  88.9000        288
  89.0000        314
  89.1000        328
  89.2000        285
  89.3000        324
  89.4000        337
  89.5000        328
  89.6000        328
  89.7000        276
  89.8000        274
  89.9000        298
  90.0000        312
  90.1000        277
  90.2000        273
  90.3000        296
  90.4000        266
  90.5000        265
  90.6000        269
  90.7000        304
  90.8000        283
  90.9000        300
  91.0000        255
  91.1000        295
  91.2000        260
  91.3000        275
  91.4000        237
  91.5000        285
  91.6000        285
  91.7000        312
  91.8000        271
  91.9000        262
  92.0000        263
  92.1000        288
  92.2000        284
  92.3000        311
  92.4000        263
  92.5000        277
  92.6000        290
  92.7000        283
  92.8000        272
  92.9000        261
  93.0000        294
  93.1000        308
  93.2000        286
  93.3000        299
  93.4000        274
  93.5000        314
  93.6000        313
  93.7000        264
  93.8000        293
  93.9000        278
  94.0000        279
  94.1000        287
  94.2000        281
  94.3000        273
  94.4000        312
  94.5000        270
  94.6000        259
  94.7000        290
  94.8000        288
  94.9000        284
  95.0000        281
  95.1000        283
  95.2000        295
  95.3000        288
  95.4000        279
  95.5000        288
  95.6000        257
  95.7000        286
  95.8000        291
  95.9000        307
  96.0000        331
  96.1000        274
  96.2000        285
  96.3000        241
  96.4000        300
  96.5000        268
  96.6000        277
  96.7000        260
  96.8000        280
  96.9000        302
  97.0000        287
  97.1000        274
  97.2000        276
  97.3000        302
  97.4000        305
  97.5000        302
  97.6000        268
  97.7000        312
  97.8000        303
  97.9000        309
  98.0000        310
  98.1000        293
  98.2000        328
  98.3000        339
  98.4000        316
  98.5000        342
  98.6000        380
  98.7000        400
  98.8000        379
  98.9000        418
  99.0000        421
  99.1000        472
  99.2000        474
  99.3000        487
  99.4000        533
  99.5000        453
  99.6000        460
  99.7000        444
  99.8000        437
  99.9000        474
 100.0000        417
 100.1000        373
 100.2000        390
 100.3000        354
 100.4000        350
 100.5000        353
 100.6000        332
 100.7000        304
 100.8000        297
 100.9000        292
 101.0000        296
 101.1000        306
 101.2000        298
 101.3000        298
 101.4000        288
 101.5000        295
 101.6000        260
 101.7000        302
 101.8000        308
 101.9000        301
 102.0000        318
 102.1000        299
 102.2000        294
 102.3000        286
 102.4000        315
 102.5000        267
 102.6000        308
 102.7000        331
 102.8000        305
 102.9000        246
 103.0000        310
 103.1000        294
 103.2000        304
 103.3000        286
 103.4000        299
 103.5000        308
 103.6000        284
 103.7000        286
 103.8000        325
 103.9000        295
 104.0000        333
 104.1000        285
 104.2000        316
 104.3000        268
 104.4000        328
 104.5000        298
 104.6000        289
 104.7000        306
 104.8000        301
 104.9000        284
 105.0000        325
 105.1000        283
 105.2000        304
 105.3000        289
 105.4000        294
 105.5000        302
 105.6000        305
 105.7000        321
 105.8000        313
 105.9000        326
 106.0000        307
 106.1000        312
 106.2000        323
 106.3000        315
 106.4000        322
 106.5000        309
 106.6000        288
 106.7000        277
 106.8000        291
 106.9000        280
 107.0000        296
 107.1000        267
 107.2000        317
 107.3000        340
 107.4000        329
 107.5000        301
 107.6000        300
 107.7000        286
 107.8000        292
 107.9000        289
 108.0000        290
 108.1000        307
 108.2000        300
 108.3000        289
 108.4000        293
 108.5000        302
 108.6000        310
 108.7000        306
 108.8000        296
 108.9000        298
 109.0000        290
 109.1000        299
 109.2000        312
 109.3000        302
 109.4000        365
 109.5000        333
 109.6000        307
 109.7000        300
 109.8000        297
 109.9000        328
 110.0000        348
 110.1000        343
 110.2000        338
 110.3000        356
 110.4000        357
 110.5000        345
 110.6000        347
 110.7000        358
 110.8000        336
 110.9000        330
 111.0000        352
 111.1000        304
 111.2000        322
 111.3000        318
 111.4000        332
 111.5000        339
 111.6000        367
 111.7000        358
 111.8000        355
 111.9000        312
 112.0000        322
 112.1000        322
 112.2000        289
 112.3000        319
 112.4000        313
 112.5000        316
 112.6000        308
 112.7000        317
 112.8000        309
 112.9000        327
 113.0000        303
 113.1000        307
 113.2000        324
 113.3000        332
 113.4000        270
 113.5000        330
 113.6000        320
 113.7000        300
 113.8000        330
 113.9000        311
 114.0000        309
 114.1000        307
 114.2000        274
 114.3000        306
 114.4000        315
 114.5000        327
 114.6000        297
 114.7000        327
 114.8000        318
 114.9000        278
 115.0000        279
 115.1000        297
 115.2000        319
 115.3000        312
 115.4000        303
 115.5000        301
 115.6000        340
 115.7000        315
 115.8000        345
 115.9000        314
 116.0000        298
 116.1000        352
 116.2000        284
 116.3000        366
 116.4000        302
 116.5000        299
 116.6000        332
 116.7000        347
 116.8000        312
 116.9000        316
 117.0000        294
 117.1000        337
 117.2000        303
 117.3000        332
 117.4000        329
 117.5000        313
 117.6000        301
 117.7000        310
 117.8000        338
 117.9000        311
 118.0000        336
 118.1000        324
 118.2000        321
 118.3000        312
 118.4000        367
 118.5000        303
 118.6000        344
 118.7000        356
 118.8000        352
 118.9000        334
 119.0000        322
 119.1000        308
 119.2000        340
 119.3000        347
 119.4000        316
 119.5000        323
 119.6000        331
 119.7000        341
 119.8000        327
 119.9000        361
 120.0000        325
 120.1000        309
 120.2000        333
 120.3000        312
 120.4000        338
 120.5000        289
 120.6000        339
 120.7000        330
 120.8000        312
 120.9000        310
 121.0000        329
 121.1000        319
 121.2000        340
 121.3000        312
 121.4000        315
 121.5000        315
 121.6000        320
 121.7000        334
 121.8000        329
 121.9000        323
 122.0000        301
 122.1000        367
 122.2000        327
 122.3000        334
 122.4000        369
 122.5000        322
 122.6000        369
 122.7000        390
 122.8000        401
 122.9000        402
 123.0000        406
 123.1000        393
 123.2000        404
 123.3000        473
 123.4000        448
 123.5000        457
 123.6000        454
 123.7000        453
 123.8000        448
 123.9000        439
 124.0000        427
 124.1000        384
 124.2000        384
 124.3000        389
 124.4000        386
 124.5000        358
 124.6000        364
 124.7000        332
 124.8000        387
 124.9000        337
 125.0000        340
 125.1000        307
 125.2000        320
 125.3000        329
 125.4000        315
 125.5000        315
 125.6000        324
 125.7000        318
 125.8000        299
 125.9000        294
 126.0000        334
 126.1000        313
 126.2000        329
 126.3000        325
 126.4000        311
 126.5000        297
 126.6000        310
 126.7000        333
 126.8000        304
 126.9000        309
 127.0000        318
 127.1000        300
 127.2000        337
 127.3000        348
 127.4000        326
 127.5000        306
 127.6000        313
 127.7000        316
 127.8000        308
 127.9000        299
 128.0000        291
 128.1000        302
 128.2000        325
 128.3000        316
 128.4000        306
 128.5000        359
 128.6000        341
 128.7000        322
 128.8000        311
 128.9000        316
 129.0000        324
 129.1000        309
 129.2000        300
 129.3000        309
 129.4000        335
 129.5000        324
 129.6000        352
 129.7000        346
 129.8000        320
 129.9000        320
 130.0000        342