File: exp_dat/old/exp_2013_11_06/07pct_050G.uxd
; (content of file C:\DIFFDAT1\GIFT\MDL\Seawoong Lee\20131104_MV8\equal_area_maxkhi080_n8_2th40_130_x25y00_50g.raw)
_FILEVERSION = 3
_SAMPLE =
_+SAMPLE =
_SITE = Korea
_USER = Admin
_GONIOMETER_CODE = 20
; Goniometer : D8 theta/2theta, stage : Unknown
_SAMPLE_CHANGER_CODE = 0
_ATTACHMENTS_CODE = 0
_GONIOMETER_RADIUS = 300
_FIXED_DIVSLIT = 1
_FIXED_SAMPLESLIT = 0
_SOLLER_SLITS = 2
_FIXED_DETSLIT = 0.1
_MONOCHROMATOR = 0
; Incident beam monochromator : None
_SOLLER_SLITS_2 = 2
_THIN_FILM = N
_BETA_FILTER = Y
_FIXED_ANTISLIT = 0.6
_ANALYZER_CODE = 0
; Received beam analyzer : None
_DATEMEASURED = "05-Nov-2013 16:03:59"
_WL_UNIT = A
_WL1 = 1.78897
_WL2 = 1.79285
_WL3 = 1.62079
_WLRATIO = 0.5
_ANODE = Co
_V4_INF_CREATOR = XRDWizard
_V4_INF_CREATOR_VERSION = V2.9.0.22
_V4_INF_WIZARD_VERSION = V2.9.0.22
_V4_INF_WIZARD_ADDINS = V2.9.0.22
_V4_INF_WIZARD_DOCTYPE = XRD
_V4_INF_OSUSER = Postech
_V4_INF_USER = Admin
_V4_INF_SITE = Korea

; Data for range 1
_DRIVE = COUPLED
_STEPTIME = 0.2
_STEPSIZE = 0.1
_STEPMODE = C
_START = 40
_THETA = 20
_2THETA = 40
_KHI = 0
_PHI = 0
_X = 25
_Y = 0
_Z = 0
_DETECTOR = 1
; Detector type : Scintillation counter
_HV = 687
_GAIN = 80
_LLD = 0.69
_ULD = 1.866
_DETECTORSLIT = unkn
_AUX1 = 0
_AUX2 = 0
_AUX3 = 0
_TIMESTARTED = 28
_TEMP_RATE = -1
_TEMP_DELAY = -1
_KV = 35
_MA = 40
_RANGE_WL = 1.78897
_3DPLANE = 0
_V4_ADDITIONALDETECTOR = 0
_V4_D8_DIBNUM = 1
_V4_DETECTORNAME = "Detector 1"
_V4_TTLDETECTOR = None
_V4_DETECTORTYPE = 1
_V4_DETECTORFLAGS = 524545
_V4_DETECTORHV = 687
_V4_DETECTORGAIN = 80
_V4_DETECTORLLD1 = 0.69
_V4_DETECTORWW1 = 1.176
_V4_DETECTORLLD2 = 0
_V4_DETECTORWW2 = 0
_V4_DETECTORPS = 0
_V4_DETECTORDT = 0
_V4_DETECTORPILEUPTIME = 0
_V4_COUNTERS_MASK = 1
_V4_DRIVES_MASK = 0
_V4_ENCODERS_MASK = 0
_2THETACOUNTS = 1
; 2THETA  Cnt1_D1
  40.0000        347
  40.1000        363
  40.2000        401
  40.3000        371
  40.4000        383
  40.5000        385
  40.6000        358
  40.7000        356
  40.8000        376
  40.9000        397
  41.0000        373
  41.1000        389
  41.2000        391
  41.3000        369
  41.4000        339
  41.5000        348
  41.6000        377
  41.7000        394
  41.8000        362
  41.9000        387
  42.0000        413
  42.1000        400
  42.2000        388
  42.3000        412
  42.4000        360
  42.5000        377
  42.6000        382
  42.7000        384
  42.8000        343
  42.9000        385
  43.0000        405
  43.1000        387
  43.2000        409
  43.3000        404
  43.4000        410
  43.5000        369
  43.6000        403
  43.7000        369
  43.8000        373
  43.9000        411
  44.0000        374
  44.1000        402
  44.2000        411
  44.3000        396
  44.4000        413
  44.5000        397
  44.6000        379
  44.7000        418
  44.8000        398
  44.9000        381
  45.0000        410
  45.1000        371
  45.2000        409
  45.3000        403
  45.4000        400
  45.5000        382
  45.6000        368
  45.7000        418
  45.8000        381
  45.9000        394
  46.0000        380
  46.1000        430
  46.2000        409
  46.3000        395
  46.4000        432
  46.5000        415
  46.6000        418
  46.7000        419
  46.8000        370
  46.9000        410
  47.0000        413
  47.1000        411
  47.2000        392
  47.3000        383
  47.4000        380
  47.5000        433
  47.6000        401
  47.7000        388
  47.8000        394
  47.9000        354
  48.0000        408
  48.1000        391
  48.2000        419
  48.3000        401
  48.4000        394
  48.5000        437
  48.6000        371
  48.7000        450
  48.8000        377
  48.9000        424
  49.0000        393
  49.1000        388
  49.2000        399
  49.3000        398
  49.4000        423
  49.5000        374
  49.6000        404
  49.7000        423
  49.8000        417
  49.9000        440
  50.0000        376
  50.1000        461
  50.2000        422
  50.3000        430
  50.4000        400
  50.5000        396
  50.6000        417
  50.7000        443
  50.8000        433
  50.9000        441
  51.0000        488
  51.1000        450
  51.2000        428
  51.3000        453
  51.4000        479
  51.5000        485
  51.6000        578
  51.7000        578
  51.8000        681
  51.9000        717
  52.0000        772
  52.1000        745
  52.2000        835
  52.3000        732
  52.4000        757
  52.5000        736
  52.6000        677
  52.7000        556
  52.8000        503
  52.9000        497
  53.0000        479
  53.1000        461
  53.2000        387
  53.3000        483
  53.4000        419
  53.5000        413
  53.6000        421
  53.7000        461
  53.8000        432
  53.9000        460
  54.0000        418
  54.1000        407
  54.2000        428
  54.3000        437
  54.4000        440
  54.5000        415
  54.6000        422
  54.7000        450
  54.8000        449
  54.9000        441
  55.0000        388
  55.1000        432
  55.2000        473
  55.3000        462
  55.4000        454
  55.5000        406
  55.6000        426
  55.7000        419
  55.8000        449
  55.9000        444
  56.0000        440
  56.1000        463
  56.2000        469
  56.3000        447
  56.4000        463
  56.5000        422
  56.6000        443
  56.7000        462
  56.8000        440
  56.9000        466
  57.0000        423
  57.1000        434
  57.2000        461
  57.3000        431
  57.4000        482
  57.5000        451
  57.6000        417
  57.7000        440
  57.8000        437
  57.9000        449
  58.0000        460
  58.1000        466
  58.2000        469
  58.3000        442
  58.4000        472
  58.5000        460
  58.6000        490
  58.7000        441
  58.8000        463
  58.9000        469
  59.0000        500
  59.1000        465
  59.2000        443
  59.3000        428
  59.4000        462
  59.5000        441
  59.6000        463
  59.7000        457
  59.8000        471
  59.9000        469
  60.0000        486
  60.1000        457
  60.2000        478
  60.3000        430
  60.4000        511
  60.5000        468
  60.6000        473
  60.7000        452
  60.8000        435
  60.9000        454
  61.0000        465
  61.1000        479
  61.2000        424
  61.3000        459
  61.4000        503
  61.5000        411
  61.6000        473
  61.7000        467
  61.8000        460
  61.9000        464
  62.0000        422
  62.1000        456
  62.2000        481
  62.3000        468
  62.4000        464
  62.5000        453
  62.6000        487
  62.7000        435
  62.8000        457
  62.9000        443
  63.0000        387
  63.1000        456
  63.2000        447
  63.3000        488
  63.4000        460
  63.5000        431
  63.6000        489
  63.7000        459
  63.8000        466
  63.9000        459
  64.0000        454
  64.1000        451
  64.2000        458
  64.3000        432
  64.4000        440
  64.5000        457
  64.6000        454
  64.7000        462
  64.8000        446
  64.9000        455
  65.0000        466
  65.1000        426
  65.2000        536
  65.3000        481
  65.4000        467
  65.5000        487
  65.6000        470
  65.7000        473
  65.8000        446
  65.9000        465
  66.0000        471
  66.1000        479
  66.2000        492
  66.3000        481
  66.4000        504
  66.5000        477
  66.6000        467
  66.7000        442
  66.8000        459
  66.9000        460
  67.0000        505
  67.1000        470
  67.2000        471
  67.3000        466
  67.4000        494
  67.5000        502
  67.6000        482
  67.7000        472
  67.8000        478
  67.9000        474
  68.0000        498
  68.1000        448
  68.2000        481
  68.3000        452
  68.4000        507
  68.5000        475
  68.6000        492
  68.7000        522
  68.8000        480
  68.9000        448
  69.0000        454
  69.1000        471
  69.2000        487
  69.3000        477
  69.4000        515
  69.5000        463
  69.6000        472
  69.7000        502
  69.8000        473
  69.9000        448
  70.0000        437
  70.1000        540
  70.2000        449
  70.3000        507
  70.4000        495
  70.5000        520
  70.6000        476
  70.7000        498
  70.8000        459
  70.9000        500
  71.0000        485
  71.1000        482
  71.2000        479
  71.3000        472
  71.4000        480
  71.5000        477
  71.6000        488
  71.7000        489
  71.8000        497
  71.9000        533
  72.0000        487
  72.1000        492
  72.2000        497
  72.3000        475
  72.4000        471
  72.5000        484
  72.6000        467
  72.7000        465
  72.8000        470
  72.9000        510
  73.0000        484
  73.1000        454
  73.2000        503
  73.3000        488
  73.4000        480
  73.5000        480
  73.6000        500
  73.7000        476
  73.8000        508
  73.9000        508
  74.0000        487
  74.1000        487
  74.2000        522
  74.3000        491
  74.4000        491
  74.5000        493
  74.6000        515
  74.7000        501
  74.8000        517
  74.9000        472
  75.0000        461
  75.1000        525
  75.2000        489
  75.3000        514
  75.4000        530
  75.5000        502
  75.6000        519
  75.7000        553
  75.8000        551
  75.9000        595
  76.0000        627
  76.1000        689
  76.2000        771
  76.3000        897
  76.4000        994
  76.5000       1055
  76.6000       1195
  76.7000       1144
  76.8000       1171
  76.9000       1214
  77.0000       1164
  77.1000       1051
  77.2000        978
  77.3000        848
  77.4000        761
  77.5000        682
  77.6000        662
  77.7000        610
  77.8000        564
  77.9000        542
  78.0000        510
  78.1000        494
  78.2000        501
  78.3000        490
  78.4000        502
  78.5000        515
  78.6000        489
  78.7000        489
  78.8000        510
  78.9000        544
  79.0000        523
  79.1000        552
  79.2000        555
  79.3000        509
  79.4000        477
  79.5000        491
  79.6000        499
  79.7000        469
  79.8000        465
  79.9000        474
  80.0000        436
  80.1000        506
  80.2000        493
  80.3000        531
  80.4000        514
  80.5000        516
  80.6000        489
  80.7000        486
  80.8000        463
  80.9000        530
  81.0000        464
  81.1000        540
  81.2000        486
  81.3000        457
  81.4000        496
  81.5000        516
  81.6000        504
  81.7000        498
  81.8000        517
  81.9000        490
  82.0000        537
  82.1000        501
  82.2000        530
  82.3000        483
  82.4000        467
  82.5000        484
  82.6000        476
  82.7000        500
  82.8000        495
  82.9000        470
  83.0000        535
  83.1000        487
  83.2000        488
  83.3000        491
  83.4000        499
  83.5000        464
  83.6000        474
  83.7000        476
  83.8000        549
  83.9000        488
  84.0000        505
  84.1000        520
  84.2000        468
  84.3000        518
  84.4000        492
  84.5000        472
  84.6000        479
  84.7000        502
  84.8000        518
  84.9000        494
  85.0000        499
  85.1000        513
  85.2000        520
  85.3000        488
  85.4000        510
  85.5000        502
  85.6000        490
  85.7000        528
  85.8000        512
  85.9000        492
  86.0000        499
  86.1000        497
  86.2000        526
  86.3000        512
  86.4000        475
  86.5000        486
  86.6000        505
  86.7000        495
  86.8000        506
  86.9000        515
  87.0000        492
  87.1000        496
  87.2000        500
  87.3000        482
  87.4000        516
  87.5000        522
  87.6000        512
  87.7000        498
  87.8000        498
  87.9000        533
  88.0000        533
  88.1000        513
  88.2000        519
  88.3000        511
  88.4000        481
  88.5000        525
  88.6000        516
  88.7000        517
  88.8000        530
  88.9000        513
  89.0000        527
  89.1000        508
  89.2000        524
  89.3000        549
  89.4000        564
  89.5000        527
  89.6000        570
  89.7000        534
  89.8000        527
  89.9000        552
  90.0000        545
  90.1000        569
  90.2000        536
  90.3000        510
  90.4000        554
  90.5000        545
  90.6000        529
  90.7000        527
  90.8000        518
  90.9000        510
  91.0000        530
  91.1000        476
  91.2000        493
  91.3000        544
  91.4000        492
  91.5000        488
  91.6000        547
  91.7000        507
  91.8000        468
  91.9000        473
  92.0000        492
  92.1000        495
  92.2000        513
  92.3000        458
  92.4000        495
  92.5000        487
  92.6000        493
  92.7000        538
  92.8000        521
  92.9000        458
  93.0000        520
  93.1000        519
  93.2000        492
  93.3000        512
  93.4000        500
  93.5000        495
  93.6000        538
  93.7000        504
  93.8000        554
  93.9000        534
  94.0000        485
  94.1000        504
  94.2000        531
  94.3000        482
  94.4000        508
  94.5000        532
  94.6000        474
  94.7000        511
  94.8000        465
  94.9000        530
  95.0000        497
  95.1000        504
  95.2000        553
  95.3000        526
  95.4000        537
  95.5000        504
  95.6000        514
  95.7000        520
  95.8000        492
  95.9000        532
  96.0000        511
  96.1000        497
  96.2000        517
  96.3000        541
  96.4000        514
  96.5000        512
  96.6000        524
  96.7000        521
  96.8000        519
  96.9000        506
  97.0000        492
  97.1000        539
  97.2000        523
  97.3000        549
  97.4000        507
  97.5000        560
  97.6000        543
  97.7000        536
  97.8000        505
  97.9000        527
  98.0000        589
  98.1000        514
  98.2000        655
  98.3000        702
  98.4000        694
  98.5000        780
  98.6000        979
  98.7000       1057
  98.8000       1208
  98.9000       1390
  99.0000       1464
  99.1000       1557
  99.2000       1630
  99.3000       1719
  99.4000       1625
  99.5000       1499
  99.6000       1360
  99.7000       1326
  99.8000       1062
  99.9000        907
 100.0000        865
 100.1000        757
 100.2000        682
 100.3000        616
 100.4000        646
 100.5000        605
 100.6000        554
 100.7000        564
 100.8000        555
 100.9000        532
 101.0000        524
 101.1000        543
 101.2000        535
 101.3000        530
 101.4000        523
 101.5000        493
 101.6000        488
 101.7000        516
 101.8000        531
 101.9000        492
 102.0000        544
 102.1000        536
 102.2000        539
 102.3000        482
 102.4000        468
 102.5000        467
 102.6000        499
 102.7000        561
 102.8000        539
 102.9000        496
 103.0000        506
 103.1000        492
 103.2000        504
 103.3000        538
 103.4000        540
 103.5000        491
 103.6000        507
 103.7000        539
 103.8000        491
 103.9000        524
 104.0000        535
 104.1000        525
 104.2000        513
 104.3000        488
 104.4000        519
 104.5000        501
 104.6000        503
 104.7000        554
 104.8000        471
 104.9000        514
 105.0000        511
 105.1000        505
 105.2000        511
 105.3000        532
 105.4000        517
 105.5000        486
 105.6000        478
 105.7000        505
 105.8000        518
 105.9000        472
 106.0000        515
 106.1000        535
 106.2000        504
 106.3000        537
 106.4000        531
 106.5000        519
 106.6000        501
 106.7000        520
 106.8000        512
 106.9000        502
 107.0000        482
 107.1000        520
 107.2000        503
 107.3000        513
 107.4000        533
 107.5000        501
 107.6000        548
 107.7000        504
 107.8000        516
 107.9000        512
 108.0000        523
 108.1000        512
 108.2000        505
 108.3000        523
 108.4000        480
 108.5000        521
 108.6000        489
 108.7000        529
 108.8000        489
 108.9000        501
 109.0000        478
 109.1000        534
 109.2000        457
 109.3000        556
 109.4000        464
 109.5000        516
 109.6000        515
 109.7000        538
 109.8000        535
 109.9000        562
 110.0000        522
 110.1000        520
 110.2000        512
 110.3000        524
 110.4000        525
 110.5000        541
 110.6000        519
 110.7000        459
 110.8000        524
 110.9000        537
 111.0000        500
 111.1000        555
 111.2000        528
 111.3000        547
 111.4000        549
 111.5000        520
 111.6000        487
 111.7000        496
 111.8000        545
 111.9000        574
 112.0000        490
 112.1000        507
 112.2000        498
 112.3000        522
 112.4000        482
 112.5000        495
 112.6000        465
 112.7000        479
 112.8000        474
 112.9000        497
 113.0000        458
 113.1000        505
 113.2000        526
 113.3000        518
 113.4000        510
 113.5000        528
 113.6000        519
 113.7000        471
 113.8000        502
 113.9000        502
 114.0000        524
 114.1000        536
 114.2000        490
 114.3000        463
 114.4000        527
 114.5000        507
 114.6000        528
 114.7000        565
 114.8000        496
 114.9000        538
 115.0000        537
 115.1000        497
 115.2000        493
 115.3000        505
 115.4000        545
 115.5000        479
 115.6000        467
 115.7000        490
 115.8000        550
 115.9000        482
 116.0000        477
 116.1000        528
 116.2000        529
 116.3000        495
 116.4000        512
 116.5000        544
 116.6000        508
 116.7000        498
 116.8000        514
 116.9000        518
 117.0000        556
 117.1000        502
 117.2000        500
 117.3000        526
 117.4000        523
 117.5000        529
 117.6000        550
 117.7000        511
 117.8000        478
 117.9000        511
 118.0000        518
 118.1000        538
 118.2000        531
 118.3000        499
 118.4000        528
 118.5000        580
 118.6000        493
 118.7000        453
 118.8000        527
 118.9000        509
 119.0000        469
 119.1000        505
 119.2000        519
 119.3000        497
 119.4000        528
 119.5000        500
 119.6000        501
 119.7000        554
 119.8000        517
 119.9000        499
 120.0000        520
 120.1000        564
 120.2000        509
 120.3000        536
 120.4000        502
 120.5000        511
 120.6000        528
 120.7000        480
 120.8000        457
 120.9000        506
 121.0000        516
 121.1000        520
 121.2000        548
 121.3000        489
 121.4000        572
 121.5000        495
 121.6000        514
 121.7000        552
 121.8000        496
 121.9000        522
 122.0000        555
 122.1000        511
 122.2000        505
 122.3000        473
 122.4000        531
 122.5000        485
 122.6000        488
 122.7000        515
 122.8000        534
 122.9000        527
 123.0000        555
 123.1000        534
 123.2000        549
 123.3000        527
 123.4000        586
 123.5000        583
 123.6000        570
 123.7000        518
 123.8000        519
 123.9000        563
 124.0000        522
 124.1000        499
 124.2000        512
 124.3000        507
 124.4000        513
 124.5000        481
 124.6000        504
 124.7000        507
 124.8000        506
 124.9000        506
 125.0000        509
 125.1000        499
 125.2000        551
 125.3000        552
 125.4000        504
 125.5000        538
 125.6000        509
 125.7000        512
 125.8000        477
 125.9000        534
 126.0000        542
 126.1000        522
 126.2000        527
 126.3000        540
 126.4000        489
 126.5000        521
 126.6000        526
 126.7000        510
 126.8000        463
 126.9000        490
 127.0000        505
 127.1000        509
 127.2000        534
 127.3000        501
 127.4000        529
 127.5000        455
 127.6000        436
 127.7000        574
 127.8000        524
 127.9000        505
 128.0000        487
 128.1000        490
 128.2000        503
 128.3000        540
 128.4000        524
 128.5000        513
 128.6000        512
 128.7000        533
 128.8000        530
 128.9000        486
 129.0000        488
 129.1000        526
 129.2000        515
 129.3000        504
 129.4000        497
 129.5000        505
 129.6000        500
 129.7000        486
 129.8000        481
 129.9000        529
 130.0000        501

; Data for range 2
_DRIVE = COUPLED
_STEPTIME = 0.2
_STEPSIZE = 0.1
_STEPMODE = C
_START = 40
_THETA = 20
_2THETA = 40
_KHI = 10.5
_PHI = 60
_X = 25
_Y = 0
_Z = 0
_DETECTOR = 1
; Detector type : Scintillation counter
_HV = 687
_GAIN = 80
_LLD = 0.69
_ULD = 1.866
_DETECTORSLIT = unkn
_AUX1 = 0
_AUX2 = 0
_AUX3 = 0
_TIMESTARTED = 225
_TEMP_RATE = -1
_TEMP_DELAY = -1
_KV = 35
_MA = 40
_RANGE_WL = 1.78897
_3DPLANE = 0
_V4_ADDITIONALDETECTOR = 0
_V4_D8_DIBNUM = 1
_V4_DETECTORNAME = "Detector 1"
_V4_TTLDETECTOR = None
_V4_DETECTORTYPE = 1
_V4_DETECTORFLAGS = 524545
_V4_DETECTORHV = 687
_V4_DETECTORGAIN = 80
_V4_DETECTORLLD1 = 0.69
_V4_DETECTORWW1 = 1.176
_V4_DETECTORLLD2 = 0
_V4_DETECTORWW2 = 0
_V4_DETECTORPS = 0
_V4_DETECTORDT = 0
_V4_DETECTORPILEUPTIME = 0
_V4_COUNTERS_MASK = 1
_V4_DRIVES_MASK = 0
_V4_ENCODERS_MASK = 0
_2THETACOUNTS = 1
; 2THETA  Cnt1_D1
  40.0000        467
  40.1000        497
  40.2000        530
  40.3000        500
  40.4000        489
  40.5000        518
  40.6000        506
  40.7000        539
  40.8000        495
  40.9000        511
  41.0000        517
  41.1000        507
  41.2000        477
  41.3000        513
  41.4000        465
  41.5000        475
  41.6000        514
  41.7000        531
  41.8000        482
  41.9000        520
  42.0000        475
  42.1000        502
  42.2000        506
  42.3000        512
  42.4000        489
  42.5000        513
  42.6000        509
  42.7000        505
  42.8000        552
  42.9000        540
  43.0000        544
  43.1000        511
  43.2000        498
  43.3000        473
  43.4000        517
  43.5000        478
  43.6000        493
  43.7000        504
  43.8000        522
  43.9000        536
  44.0000        467
  44.1000        504
  44.2000        522
  44.3000        503
  44.4000        481
  44.5000        484
  44.6000        524
  44.7000        514
  44.8000        496
  44.9000        502
  45.0000        498
  45.1000        509
  45.2000        521
  45.3000        524
  45.4000        530
  45.5000        520
  45.6000        512
  45.7000        522
  45.8000        505
  45.9000        571
  46.0000        512
  46.1000        483
  46.2000        535
  46.3000        524
  46.4000        542
  46.5000        474
  46.6000        511
  46.7000        542
  46.8000        525
  46.9000        503
  47.0000        509
  47.1000        503
  47.2000        537
  47.3000        453
  47.4000        508
  47.5000        484
  47.6000        509
  47.7000        476
  47.8000        530
  47.9000        524
  48.0000        501
  48.1000        505
  48.2000        513
  48.3000        542
  48.4000        503
  48.5000        502
  48.6000        519
  48.7000        509
  48.8000        526
  48.9000        549
  49.0000        492
  49.1000        548
  49.2000        517
  49.3000        510
  49.4000        517
  49.5000        498
  49.6000        509
  49.7000        521
  49.8000        524
  49.9000        509
  50.0000        502
  50.1000        524
  50.2000        506
  50.3000        535
  50.4000        541
  50.5000        526
  50.6000        557
  50.7000        546
  50.8000        533
  50.9000        545
  51.0000        573
  51.1000        542
  51.2000        573
  51.3000        601
  51.4000        620
  51.5000        677
  51.6000        743
  51.7000        892
  51.8000        932
  51.9000       1034
  52.0000       1112
  52.1000       1168
  52.2000       1120
  52.3000       1068
  52.4000       1030
  52.5000        971
  52.6000        745
  52.7000        704
  52.8000        614
  52.9000        593
  53.0000        533
  53.1000        542
  53.2000        548
  53.3000        543
  53.4000        478
  53.5000        521
  53.6000        529
  53.7000        493
  53.8000        513
  53.9000        519
  54.0000        524
  54.1000        514
  54.2000        537
  54.3000        503
  54.4000        518
  54.5000        531
  54.6000        506
  54.7000        477
  54.8000        514
  54.9000        479
  55.0000        508
  55.1000        527
  55.2000        502
  55.3000        474
  55.4000        498
  55.5000        512
  55.6000        504
  55.7000        510
  55.8000        517
  55.9000        474
  56.0000        505
  56.1000        551
  56.2000        521
  56.3000        521
  56.4000        506
  56.5000        520
  56.6000        512
  56.7000        526
  56.8000        503
  56.9000        511
  57.0000        510
  57.1000        517
  57.2000        551
  57.3000        515
  57.4000        501
  57.5000        474
  57.6000        520
  57.7000        504
  57.8000        490
  57.9000        534
  58.0000        526
  58.1000        510
  58.2000        553
  58.3000        511
  58.4000        507
  58.5000        536
  58.6000        532
  58.7000        508
  58.8000        517
  58.9000        518
  59.0000        489
  59.1000        515
  59.2000        543
  59.3000        496
  59.4000        523
  59.5000        494
  59.6000        526
  59.7000        450
  59.8000        532
  59.9000        498
  60.0000        488
  60.1000        508
  60.2000        522
  60.3000        515
  60.4000        481
  60.5000        499
  60.6000        499
  60.7000        501
  60.8000        478
  60.9000        504
  61.0000        498
  61.1000        510
  61.2000        503
  61.3000        530
  61.4000        491
  61.5000        543
  61.6000        508
  61.7000        517
  61.8000        489
  61.9000        471
  62.0000        517
  62.1000        513
  62.2000        518
  62.3000        500
  62.4000        530
  62.5000        529
  62.6000        499
  62.7000        504
  62.8000        505
  62.9000        498
  63.0000        517
  63.1000        475
  63.2000        474
  63.3000        503
  63.4000        501
  63.5000        479
  63.6000        502
  63.7000        464
  63.8000        522
  63.9000        463
  64.0000        523
  64.1000        498
  64.2000        493
  64.3000        507
  64.4000        488
  64.5000        504
  64.6000        491
  64.7000        527
  64.8000        508
  64.9000        479
  65.0000        481
  65.1000        503
  65.2000        522
  65.3000        533
  65.4000        513
  65.5000        522
  65.6000        508
  65.7000        466
  65.8000        534
  65.9000        475
  66.0000        523
  66.1000        465
  66.2000        500
  66.3000        491
  66.4000        531
  66.5000        507
  66.6000        482
  66.7000        455
  66.8000        521
  66.9000        513
  67.0000        518
  67.1000        503
  67.2000        498
  67.3000        476
  67.4000        555
  67.5000        486
  67.6000        473
  67.7000        516
  67.8000        547
  67.9000        527
  68.0000        531
  68.1000        480
  68.2000        470
  68.3000        487
  68.4000        504
  68.5000        471
  68.6000        507
  68.7000        509
  68.8000        478
  68.9000        517
  69.0000        510
  69.1000        497
  69.2000        523
  69.3000        525
  69.4000        483
  69.5000        465
  69.6000        541
  69.7000        513
  69.8000        506
  69.9000        505
  70.0000        501
  70.1000        494
  70.2000        497
  70.3000        502
  70.4000        490
  70.5000        500
  70.6000        487
  70.7000        499
  70.8000        517
  70.9000        517
  71.0000        465
  71.1000        472
  71.2000        550
  71.3000        497
  71.4000        470
  71.5000        474
  71.6000        513
  71.7000        510
  71.8000        480
  71.9000        515
  72.0000        541
  72.1000        510
  72.2000        512
  72.3000        506
  72.4000        519
  72.5000        507
  72.6000        510
  72.7000        485
  72.8000        474
  72.9000        498
  73.0000        525
  73.1000        492
  73.2000        517
  73.3000        465
  73.4000        494
  73.5000        500
  73.6000        492
  73.7000        518
  73.8000        496
  73.9000        476
  74.0000        487
  74.1000        537
  74.2000        525
  74.3000        548
  74.4000        476
  74.5000        478
  74.6000        518
  74.7000        515
  74.8000        472
  74.9000        505
  75.0000        512
  75.1000        520
  75.2000        473
  75.3000        465
  75.4000        501
  75.5000        503
  75.6000        516
  75.7000        474
  75.8000        544
  75.9000        541
  76.0000        496
  76.1000        569
  76.2000        576
  76.3000        594
  76.4000        612
  76.5000        649
  76.6000        636
  76.7000        676
  76.8000        699
  76.9000        618
  77.0000        584
  77.1000        657
  77.2000        644
  77.3000        616
  77.4000        585
  77.5000        545
  77.6000        576
  77.7000        505
  77.8000        545
  77.9000        540
  78.0000        537
  78.1000        526
  78.2000        486
  78.3000        472
  78.4000        507
  78.5000        524
  78.6000        520
  78.7000        482
  78.8000        490
  78.9000        547
  79.0000        501
  79.1000        499
  79.2000        543
  79.3000        488
  79.4000        504
  79.5000        509
  79.6000        503
  79.7000        489
  79.8000        465
  79.9000        489
  80.0000        518
  80.1000        542
  80.2000        515
  80.3000        509
  80.4000        491
  80.5000        567
  80.6000        477
  80.7000        521
  80.8000        508
  80.9000        466
  81.0000        518
  81.1000        523
  81.2000        497
  81.3000        511
  81.4000        488
  81.5000        507
  81.6000        467
  81.7000        513
  81.8000        473
  81.9000        483
  82.0000        505
  82.1000        504
  82.2000        499
  82.3000        505
  82.4000        515
  82.5000        539
  82.6000        471
  82.7000        475
  82.8000        508
  82.9000        503
  83.0000        525
  83.1000        523
  83.2000        455
  83.3000        512
  83.4000        475
  83.5000        487
  83.6000        518
  83.7000        518
  83.8000        507
  83.9000        476
  84.0000        503
  84.1000        484
  84.2000        515
  84.3000        496
  84.4000        459
  84.5000        513
  84.6000        481
  84.7000        499
  84.8000        470
  84.9000        503
  85.0000        526
  85.1000        485
  85.2000        540
  85.3000        504
  85.4000        500
  85.5000        497
  85.6000        488
  85.7000        514
  85.8000        520
  85.9000        513
  86.0000        510
  86.1000        479
  86.2000        532
  86.3000        476
  86.4000        504
  86.5000        485
  86.6000        506
  86.7000        470
  86.8000        554
  86.9000        467
  87.0000        504
  87.1000        509
  87.2000        519
  87.3000        511
  87.4000        520
  87.5000        525
  87.6000        488
  87.7000        453
  87.8000        501
  87.9000        508
  88.0000        487
  88.1000        530
  88.2000        548
  88.3000        468
  88.4000        476
  88.5000        514
  88.6000        511
  88.7000        497
  88.8000        504
  88.9000        483
  89.0000        498
  89.1000        521
  89.2000        561
  89.3000        536
  89.4000        534
  89.5000        507
  89.6000        556
  89.7000        520
  89.8000        519
  89.9000        543
  90.0000        518
  90.1000        523
  90.2000        510
  90.3000        487
  90.4000        487
  90.5000        515
  90.6000        548
  90.7000        500
  90.8000        500
  90.9000        536
  91.0000        535
  91.1000        545
  91.2000        507
  91.3000        508
  91.4000        490
  91.5000        508
  91.6000        506
  91.7000        534
  91.8000        498
  91.9000        481
  92.0000        517
  92.1000        534
  92.2000        503
  92.3000        529
  92.4000        518
  92.5000        465
  92.6000        516
  92.7000        496
  92.8000        472
  92.9000        539
  93.0000        498
  93.1000        479
  93.2000        552
  93.3000        483
  93.4000        481
  93.5000        479
  93.6000        518
  93.7000        497
  93.8000        522
  93.9000        439
  94.0000        496
  94.1000        520
  94.2000        505
  94.3000        521
  94.4000        481
  94.5000        515
  94.6000        494
  94.7000        482
  94.8000        500
  94.9000        510
  95.0000        512
  95.1000        492
  95.2000        498
  95.3000        508
  95.4000        476
  95.5000        485
  95.6000        490
  95.7000        523
  95.8000        531
  95.9000        455
  96.0000        541
  96.1000        506
  96.2000        502
  96.3000        490
  96.4000        518
  96.5000        467
  96.6000        476
  96.7000        502
  96.8000        466
  96.9000        501
  97.0000        496
  97.1000        527
  97.2000        496
  97.3000        524
  97.4000        499
  97.5000        524
  97.6000        511
  97.7000        503
  97.8000        515
  97.9000        494
  98.0000        463
  98.1000        540
  98.2000        557
  98.3000        547
  98.4000        607
  98.5000        601
  98.6000        662
  98.7000        742
  98.8000        783
  98.9000        794
  99.0000        863
  99.1000        921
  99.2000        957
  99.3000        942
  99.4000        913
  99.5000        902
  99.6000        894
  99.7000        829
  99.8000        723
  99.9000        696
 100.0000        637
 100.1000        615
 100.2000        619
 100.3000        618
 100.4000        518
 100.5000        560
 100.6000        527
 100.7000        507
 100.8000        482
 100.9000        497
 101.0000        500
 101.1000        520
 101.2000        501
 101.3000        516
 101.4000        528
 101.5000        490
 101.6000        510
 101.7000        536
 101.8000        527
 101.9000        527
 102.0000        490
 102.1000        488
 102.2000        536
 102.3000        489
 102.4000        498
 102.5000        516
 102.6000        494
 102.7000        531
 102.8000        535
 102.9000        510
 103.0000        524
 103.1000        549
 103.2000        493
 103.3000        518
 103.4000        462
 103.5000        527
 103.6000        491
 103.7000        518
 103.8000        505
 103.9000        507
 104.0000        480
 104.1000        501
 104.2000        560
 104.3000        508
 104.4000        463
 104.5000        546
 104.6000        480
 104.7000        525
 104.8000        461
 104.9000        435
 105.0000        524
 105.1000        481
 105.2000        526
 105.3000        506
 105.4000        495
 105.5000        499
 105.6000        507
 105.7000        506
 105.8000        543
 105.9000        501
 106.0000        529
 106.1000        484
 106.2000        483
 106.3000        514
 106.4000        494
 106.5000        498
 106.6000        487
 106.7000        503
 106.8000        467
 106.9000        483
 107.0000        518
 107.1000        438
 107.2000        497
 107.3000        543
 107.4000        481
 107.5000        469
 107.6000        498
 107.7000        509
 107.8000        534
 107.9000        481
 108.0000        495
 108.1000        484
 108.2000        502
 108.3000        510
 108.4000        516
 108.5000        490
 108.6000        523
 108.7000        474
 108.8000        514
 108.9000        513
 109.0000        506
 109.1000        499
 109.2000        535
 109.3000        537
 109.4000        548
 109.5000        496
 109.6000        513
 109.7000        513
 109.8000        509
 109.9000        524
 110.0000        499
 110.1000        520
 110.2000        508
 110.3000        479
 110.4000        524
 110.5000        537
 110.6000        553
 110.7000        485
 110.8000        505
 110.9000        538
 111.0000        472
 111.1000        501
 111.2000        517
 111.3000        504
 111.4000        499
 111.5000        501
 111.6000        488
 111.7000        516
 111.8000        529
 111.9000        517
 112.0000        485
 112.1000        525
 112.2000        509
 112.3000        512
 112.4000        542
 112.5000        510
 112.6000        484
 112.7000        518
 112.8000        499
 112.9000        524
 113.0000        556
 113.1000        529
 113.2000        485
 113.3000        497
 113.4000        505
 113.5000        498
 113.6000        494
 113.7000        488
 113.8000        438
 113.9000        500
 114.0000        527
 114.1000        496
 114.2000        489
 114.3000        492
 114.4000        529
 114.5000        532
 114.6000        491
 114.7000        531
 114.8000        484
 114.9000        501
 115.0000        490
 115.1000        513
 115.2000        487
 115.3000        508
 115.4000        559
 115.5000        540
 115.6000        510
 115.7000        457
 115.8000        510
 115.9000        493
 116.0000        464
 116.1000        519
 116.2000        515
 116.3000        495
 116.4000        524
 116.5000        525
 116.6000        483
 116.7000        525
 116.8000        486
 116.9000        519
 117.0000        542
 117.1000        518
 117.2000        490
 117.3000        501
 117.4000        492
 117.5000        523
 117.6000        527
 117.7000        465
 117.8000        491
 117.9000        471
 118.0000        495
 118.1000        500
 118.2000        528
 118.3000        479
 118.4000        520
 118.5000        539
 118.6000        501
 118.7000        495
 118.8000        511
 118.9000        516
 119.0000        502
 119.1000        473
 119.2000        539
 119.3000        534
 119.4000        533
 119.5000        459
 119.6000        477
 119.7000        505
 119.8000        517
 119.9000        527
 120.0000        520
 120.1000        482
 120.2000        522
 120.3000        480
 120.4000        499
 120.5000        537
 120.6000        494
 120.7000        501
 120.8000        488
 120.9000        539
 121.0000        494
 121.1000        522
 121.2000        507
 121.3000        514
 121.4000        535
 121.5000        510
 121.6000        498
 121.7000        522
 121.8000        523
 121.9000        488
 122.0000        515
 122.1000        531
 122.2000        556
 122.3000        513
 122.4000        502
 122.5000        543
 122.6000        483
 122.7000        509
 122.8000        495
 122.9000        475
 123.0000        579
 123.1000        573
 123.2000        570
 123.3000        529
 123.4000        575
 123.5000        533
 123.6000        564
 123.7000        567
 123.8000        532
 123.9000        555
 124.0000        532
 124.1000        576
 124.2000        534
 124.3000        497
 124.4000        496
 124.5000        508
 124.6000        499
 124.7000        469
 124.8000        515
 124.9000        543
 125.0000        521
 125.1000        527
 125.2000        500
 125.3000        481
 125.4000        547
 125.5000        535
 125.6000        494
 125.7000        540
 125.8000        513
 125.9000        495
 126.0000        516
 126.1000        464
 126.2000        519
 126.3000        558
 126.4000        535
 126.5000        498
 126.6000        494
 126.7000        466
 126.8000        528
 126.9000        468
 127.0000        487
 127.1000        529
 127.2000        514
 127.3000        506
 127.4000        503
 127.5000        512
 127.6000        486
[...]
 129.1000        338
 129.2000        293
 129.3000        334
 129.4000        290
 129.5000        341
 129.6000        332
 129.7000        322
 129.8000        302
 129.9000        299
 130.0000        330

; Data for range 53
_DRIVE = COUPLED
_STEPTIME = 0.2
_STEPSIZE = 0.1
_STEPMODE = C
_START = 40
_THETA = 20
_2THETA = 40
_KHI = 80
_PHI = 0
_X = 25
_Y = 0
_Z = 0
_DETECTOR = 1
; Detector type : Scintillation counter
_HV = 687
_GAIN = 80
_LLD = 0.69
_ULD = 1.866
_DETECTORSLIT = unkn
_AUX1 = 0
_AUX2 = 0
_AUX3 = 0
_TIMESTARTED = 1.029e+004
_TEMP_RATE = -1
_TEMP_DELAY = -1
_KV = 35
_MA = 40
_RANGE_WL = 1.78897
_3DPLANE = 0
_V4_ADDITIONALDETECTOR = 0
_V4_D8_DIBNUM = 1
_V4_DETECTORNAME = "Detector 1"
_V4_TTLDETECTOR = None
_V4_DETECTORTYPE = 1
_V4_DETECTORFLAGS = 524545
_V4_DETECTORHV = 687
_V4_DETECTORGAIN = 80
_V4_DETECTORLLD1 = 0.69
_V4_DETECTORWW1 = 1.176
_V4_DETECTORLLD2 = 0
_V4_DETECTORWW2 = 0
_V4_DETECTORPS = 0
_V4_DETECTORDT = 0
_V4_DETECTORPILEUPTIME = 0
_V4_COUNTERS_MASK = 1
_V4_DRIVES_MASK = 0
_V4_ENCODERS_MASK = 0
_2THETACOUNTS = 1
; 2THETA  Cnt1_D1
  40.0000        147
  40.1000        172
  40.2000        131
  40.3000        142
  40.4000        164
  40.5000        148
  40.6000        135
  40.7000        159
  40.8000        153
  40.9000        150
  41.0000        137
  41.1000        143
  41.2000        125
  41.3000        155
  41.4000        140
  41.5000        143
  41.6000        161
  41.7000        153
  41.8000        147
  41.9000        153
  42.0000        152
  42.1000        142
  42.2000        158
  42.3000        152
  42.4000        151
  42.5000        170
  42.6000        185
  42.7000        236
  42.8000        215
  42.9000        232
  43.0000        246
  43.1000        253
  43.2000        253
  43.3000        223
  43.4000        259
  43.5000        236
  43.6000        213
  43.7000        224
  43.8000        218
  43.9000        182
  44.0000        195
  44.1000        158
  44.2000        168
  44.3000        159
  44.4000        159
  44.5000        163
  44.6000        172
  44.7000        129
  44.8000        156
  44.9000        139
  45.0000        146
  45.1000        167
  45.2000        149
  45.3000        146
  45.4000        147
  45.5000        127
  45.6000        136
  45.7000        152
  45.8000        135
  45.9000        157
  46.0000        148
  46.1000        163
  46.2000        143
  46.3000        136
  46.4000        175
  46.5000        149
  46.6000        147
  46.7000        149
  46.8000        164
  46.9000        159
  47.0000        138
  47.1000        145
  47.2000        169
  47.3000        157
  47.4000        158
  47.5000        154
  47.6000        148
  47.7000        134
  47.8000        146
  47.9000        180
  48.0000        160
  48.1000        132
  48.2000        144
  48.3000        172
  48.4000        140
  48.5000        182
  48.6000        134
  48.7000        148
  48.8000        174
  48.9000        170
  49.0000        154
  49.1000        139
  49.2000        144
  49.3000        153
  49.4000        159
  49.5000        146
  49.6000        166
  49.7000        191
  49.8000        188
  49.9000        205
  50.0000        187
  50.1000        191
  50.2000        231
  50.3000        214
  50.4000        225
  50.5000        218
  50.6000        225
  50.7000        217
  50.8000        228
  50.9000        237
  51.0000        226
  51.1000        227
  51.2000        220
  51.3000        193
  51.4000        244
  51.5000        242
  51.6000        284
  51.7000        307
  51.8000        396
  51.9000        490
  52.0000        550
  52.1000        606
  52.2000        664
  52.3000        721
  52.4000        798
  52.5000        815
  52.6000        810
  52.7000        757
  52.8000        676
  52.9000        653
  53.0000        533
  53.1000        502
  53.2000        416
  53.3000        353
  53.4000        326
  53.5000        254
  53.6000        198
  53.7000        216
  53.8000        187
  53.9000        164
  54.0000        184
  54.1000        188
  54.2000        185
  54.3000        188
  54.4000        169
  54.5000        171
  54.6000        170
  54.7000        156
  54.8000        163
  54.9000        170
  55.0000        162
  55.1000        160
  55.2000        176
  55.3000        168
  55.4000        177
  55.5000        177
  55.6000        185
  55.7000        191
  55.8000        162
  55.9000        195
  56.0000        166
  56.1000        180
  56.2000        166
  56.3000        168
  56.4000        163
  56.5000        161
  56.6000        179
  56.7000        149
  56.8000        169
  56.9000        150
  57.0000        182
  57.1000        181
  57.2000        188
  57.3000        168
  57.4000        161
  57.5000        157
  57.6000        178
  57.7000        180
  57.8000        188
  57.9000        186
  58.0000        165
  58.1000        156
  58.2000        161
  58.3000        197
  58.4000        186
  58.5000        165
  58.6000        166
  58.7000        157
  58.8000        175
  58.9000        152
  59.0000        172
  59.1000        199
  59.2000        194
  59.3000        175
  59.4000        175
  59.5000        163
  59.6000        200
  59.7000        181
  59.8000        175
  59.9000        180
  60.0000        169
  60.1000        188
  60.2000        177
  60.3000        165
  60.4000        190
  60.5000        180
  60.6000        184
  60.7000        181
  60.8000        180
  60.9000        153
  61.0000        182
  61.1000        176
  61.2000        168
  61.3000        167
  61.4000        169
  61.5000        177
  61.6000        199
  61.7000        167
  61.8000        170
  61.9000        178
  62.0000        163
  62.1000        193
  62.2000        151
  62.3000        177
  62.4000        157
  62.5000        197
  62.6000        189
  62.7000        171
  62.8000        164
  62.9000        195
  63.0000        170
  63.1000        164
  63.2000        182
  63.3000        195
  63.4000        174
  63.5000        180
  63.6000        189
  63.7000        167
  63.8000        215
  63.9000        160
  64.0000        174
  64.1000        190
  64.2000        174
  64.3000        144
  64.4000        165
  64.5000        169
  64.6000        203
  64.7000        179
  64.8000        203
  64.9000        187
  65.0000        184
  65.1000        170
  65.2000        165
  65.3000        192
  65.4000        188
  65.5000        174
  65.6000        179
  65.7000        179
  65.8000        191
  65.9000        192
  66.0000        189
  66.1000        168
  66.2000        191
  66.3000        184
  66.4000        161
  66.5000        180
  66.6000        203
  66.7000        179
  66.8000        164
  66.9000        178
  67.0000        189
  67.1000        187
  67.2000        205
  67.3000        186
  67.4000        161
  67.5000        192
  67.6000        205
  67.7000        190
  67.8000        187
  67.9000        202
  68.0000        194
  68.1000        176
  68.2000        178
  68.3000        175
  68.4000        159
  68.5000        176
  68.6000        192
  68.7000        194
  68.8000        194
  68.9000        188
  69.0000        176
  69.1000        171
  69.2000        162
  69.3000        197
  69.4000        176
  69.5000        174
  69.6000        184
  69.7000        163
  69.8000        165
  69.9000        175
  70.0000        190
  70.1000        196
  70.2000        152
  70.3000        179
  70.4000        198
  70.5000        186
  70.6000        182
  70.7000        166
  70.8000        182
  70.9000        193
  71.0000        199
  71.1000        196
  71.2000        178
  71.3000        184
  71.4000        173
  71.5000        195
  71.6000        191
  71.7000        190
  71.8000        190
  71.9000        212
  72.0000        205
  72.1000        186
  72.2000        170
  72.3000        190
  72.4000        179
  72.5000        195
  72.6000        190
  72.7000        195
  72.8000        175
  72.9000        207
  73.0000        190
  73.1000        214
  73.2000        162
  73.3000        200
  73.4000        181
  73.5000        183
  73.6000        183
  73.7000        201
  73.8000        170
  73.9000        199
  74.0000        193
  74.1000        185
  74.2000        180
  74.3000        198
  74.4000        208
  74.5000        213
  74.6000        191
  74.7000        187
  74.8000        193
  74.9000        215
  75.0000        211
  75.1000        191
  75.2000        208
  75.3000        207
  75.4000        189
  75.5000        179
  75.6000        177
  75.7000        182
  75.8000        200
  75.9000        235
  76.0000        205
  76.1000        219
  76.2000        226
  76.3000        189
  76.4000        190
  76.5000        216
  76.6000        221
  76.7000        221
  76.8000        216
  76.9000        217
  77.0000        239
  77.1000        248
  77.2000        225
  77.3000        224
  77.4000        244
  77.5000        214
  77.6000        215
  77.7000        196
  77.8000        227
  77.9000        230
  78.0000        224
  78.1000        229
  78.2000        213
  78.3000        191
  78.4000        201
  78.5000        210
  78.6000        205
  78.7000        188
  78.8000        189
  78.9000        227
  79.0000        231
  79.1000        204
  79.2000        177
  79.3000        244
  79.4000        204
  79.5000        189
  79.6000        214
  79.7000        198
  79.8000        204
  79.9000        204
  80.0000        204
  80.1000        200
  80.2000        184
  80.3000        190
  80.4000        180
  80.5000        218
  80.6000        205
  80.7000        202
  80.8000        203
  80.9000        194
  81.0000        212
  81.1000        202
  81.2000        189
  81.3000        228
  81.4000        214
  81.5000        186
  81.6000        203
  81.7000        189
  81.8000        205
  81.9000        195
  82.0000        236
  82.1000        207
  82.2000        195
  82.3000        218
  82.4000        200
  82.5000        207
  82.6000        214
  82.7000        206
  82.8000        171
  82.9000        211
  83.0000        186
  83.1000        181
  83.2000        196
  83.3000        211
  83.4000        190
  83.5000        167
  83.6000        192
  83.7000        193
  83.8000        191
  83.9000        186
  84.0000        213
  84.1000        203
  84.2000        207
  84.3000        217
  84.4000        211
  84.5000        204
  84.6000        191
  84.7000        215
  84.8000        183
  84.9000        212
  85.0000        200
  85.1000        213
  85.2000        196
  85.3000        196
  85.4000        201
  85.5000        202
  85.6000        195
  85.7000        190
  85.8000        201
  85.9000        193
  86.0000        208
  86.1000        178
  86.2000        218
  86.3000        231
  86.4000        232
  86.5000        231
  86.6000        205
  86.7000        223
  86.8000        205
  86.9000        218
  87.0000        200
  87.1000        178
  87.2000        197
  87.3000        234
  87.4000        226
  87.5000        219
  87.6000        218
  87.7000        210
  87.8000        199
  87.9000        211
  88.0000        193
  88.1000        217
  88.2000        221
  88.3000        219
  88.4000        218
  88.5000        229
  88.6000        232
  88.7000        214
  88.8000        204
  88.9000        227
  89.0000        201
  89.1000        202
  89.2000        217
  89.3000        214
  89.4000        207
  89.5000        238
  89.6000        241
  89.7000        238
  89.8000        232
  89.9000        206
  90.0000        198
  90.1000        220
  90.2000        223
  90.3000        205
  90.4000        240
  90.5000        224
  90.6000        241
  90.7000        236
  90.8000        226
  90.9000        218
  91.0000        229
  91.1000        217
  91.2000        190
  91.3000        211
  91.4000        212
  91.5000        221
  91.6000        248
  91.7000        227
  91.8000        214
  91.9000        212
  92.0000        238
  92.1000        232
  92.2000        223
  92.3000        237
  92.4000        214
  92.5000        255
  92.6000        225
  92.7000        247
  92.8000        227
  92.9000        234
  93.0000        207
  93.1000        252
  93.2000        248
  93.3000        242
  93.4000        231
  93.5000        225
  93.6000        229
  93.7000        212
  93.8000        258
  93.9000        264
  94.0000        248
  94.1000        205
  94.2000        215
  94.3000        255
  94.4000        209
  94.5000        224
  94.6000        241
  94.7000        230
  94.8000        241
  94.9000        242
  95.0000        231
  95.1000        225
  95.2000        208
  95.3000        223
  95.4000        191
  95.5000        211
  95.6000        220
  95.7000        251
  95.8000        218
  95.9000        238
  96.0000        240
  96.1000        244
  96.2000        231
  96.3000        208
  96.4000        221
  96.5000        243
  96.6000        241
  96.7000        230
  96.8000        245
  96.9000        258
  97.0000        222
  97.1000        246
  97.2000        225
  97.3000        240
  97.4000        264
  97.5000        224
  97.6000        253
  97.7000        240
  97.8000        249
  97.9000        226
  98.0000        252
  98.1000        285
  98.2000        277
  98.3000        273
  98.4000        290
  98.5000        299
  98.6000        287
  98.7000        351
  98.8000        366
  98.9000        359
  99.0000        370
  99.1000        411
  99.2000        424
  99.3000        407
  99.4000        417
  99.5000        438
  99.6000        427
  99.7000        446
  99.8000        414
  99.9000        387
 100.0000        353
 100.1000        327
 100.2000        337
 100.3000        314
 100.4000        292
 100.5000        250
 100.6000        287
 100.7000        263
 100.8000        271
 100.9000        256
 101.0000        243
 101.1000        244
 101.2000        248
 101.3000        241
 101.4000        239
 101.5000        240
 101.6000        247
 101.7000        273
 101.8000        239
 101.9000        248
 102.0000        234
 102.1000        267
 102.2000        254
 102.3000        245
 102.4000        215
 102.5000        263
 102.6000        266
 102.7000        252
 102.8000        264
 102.9000        241
 103.0000        267
 103.1000        219
 103.2000        237
 103.3000        260
 103.4000        261
 103.5000        225
 103.6000        265
 103.7000        250
 103.8000        245
 103.9000        241
 104.0000        241
 104.1000        252
 104.2000        230
 104.3000        270
 104.4000        268
 104.5000        235
 104.6000        266
 104.7000        255
 104.8000        255
 104.9000        246
 105.0000        247
 105.1000        261
 105.2000        238
 105.3000        235
 105.4000        253
 105.5000        243
 105.6000        254
 105.7000        251
 105.8000        275
 105.9000        241
 106.0000        241
 106.1000        268
 106.2000        236
 106.3000        262
 106.4000        228
 106.5000        257
 106.6000        263
 106.7000        224
 106.8000        265
 106.9000        280
 107.0000        247
 107.1000        264
 107.2000        282
 107.3000        241
 107.4000        267
 107.5000        251
 107.6000        240
 107.7000        267
 107.8000        249
 107.9000        261
 108.0000        281
 108.1000        242
 108.2000        276
 108.3000        291
 108.4000        251
 108.5000        271
 108.6000        265
 108.7000        271
 108.8000        271
 108.9000        260
 109.0000        257
 109.1000        289
 109.2000        282
 109.3000        263
 109.4000        278
 109.5000        265
 109.6000        282
 109.7000        243
 109.8000        280
 109.9000        286
 110.0000        251
 110.1000        258
 110.2000        266
 110.3000        267
 110.4000        295
 110.5000        248
 110.6000        265
 110.7000        270
 110.8000        243
 110.9000        278
 111.0000        260
 111.1000        264
 111.2000        278
 111.3000        243
 111.4000        295
 111.5000        290
 111.6000        300
 111.7000        273
 111.8000        309
 111.9000        286
 112.0000        285
 112.1000        298
 112.2000        286
 112.3000        273
 112.4000        294
 112.5000        275
 112.6000        298
 112.7000        289
 112.8000        272
 112.9000        282
 113.0000        291
 113.1000        307
 113.2000        266
 113.3000        305
 113.4000        269
 113.5000        298
 113.6000        256
 113.7000        286
 113.8000        282
 113.9000        282
 114.0000        290
 114.1000        278
 114.2000        278
 114.3000        289
 114.4000        275
 114.5000        272
 114.6000        275
 114.7000        291
 114.8000        293
 114.9000        302
 115.0000        281
 115.1000        289
 115.2000        286
 115.3000        298
 115.4000        327
 115.5000        289
 115.6000        292
 115.7000        272
 115.8000        294
 115.9000        282
 116.0000        309
 116.1000        296
 116.2000        309
 116.3000        281
 116.4000        273
 116.5000        299
 116.6000        285
 116.7000        287
 116.8000        278
 116.9000        296
 117.0000        294
 117.1000        294
 117.2000        316
 117.3000        308
 117.4000        291
 117.5000        282
 117.6000        256
 117.7000        298
 117.8000        298
 117.9000        275
 118.0000        293
 118.1000        305
 118.2000        283
 118.3000        286
 118.4000        317
 118.5000        306
 118.6000        257
 118.7000        298
 118.8000        290
 118.9000        307
 119.0000        331
 119.1000        321
 119.2000        299
 119.3000        348
 119.4000        316
 119.5000        306
 119.6000        313
 119.7000        293
 119.8000        299
 119.9000        290
 120.0000        291
 120.1000        297
 120.2000        310
 120.3000        322
 120.4000        311
 120.5000        313
 120.6000        316
 120.7000        263
 120.8000        337
 120.9000        333
 121.0000        330
 121.1000        339
 121.2000        320
 121.3000        304
 121.4000        318
 121.5000        332
 121.6000        307
 121.7000        331
 121.8000        335
 121.9000        281
 122.0000        346
 122.1000        339
 122.2000        335
 122.3000        322
 122.4000        336
 122.5000        356
 122.6000        374
 122.7000        369
 122.8000        332
 122.9000        380
 123.0000        405
 123.1000        424
 123.2000        421
 123.3000        405
 123.4000        439
 123.5000        390
 123.6000        419
 123.7000        437
 123.8000        405
 123.9000        385
 124.0000        412
 124.1000        370
 124.2000        386
 124.3000        379
 124.4000        343
 124.5000        308
 124.6000        392
 124.7000        361
 124.8000        339
 124.9000        335
 125.0000        370
 125.1000        333
 125.2000        336
 125.3000        320
 125.4000        335
 125.5000        324
 125.6000        348
 125.7000        350
 125.8000        335
 125.9000        329
 126.0000        332
 126.1000        333
 126.2000        326
 126.3000        343
 126.4000        345
 126.5000        310
 126.6000        353
 126.7000        331
 126.8000        308
 126.9000        330
 127.0000        292
 127.1000        334
 127.2000        307
 127.3000        343
 127.4000        334
 127.5000        314
 127.6000        301
 127.7000        353
 127.8000        324
 127.9000        320
 128.0000        319
 128.1000        349
 128.2000        311
 128.3000        315
 128.4000        330
 128.5000        351
 128.6000        325
 128.7000        323
 128.8000        386
 128.9000        317
 129.0000        357
 129.1000        319
 129.2000        330
 129.3000        290
 129.4000        324
 129.5000        335
 129.6000        356
 129.7000        309
 129.8000        302
 129.9000        344
 130.0000        338